ExperimentName,Subject,Session,Clock.Information,Display.RefreshRate,Group,RandomSeed,SessionDate,SessionTime,SessionTimeUtc,Block,Filename,FileText,Noise,Procedure,Running,Slide1.RESP,Slide1.RT,Slide1.RTTime,StimList,StimList.Cycle,StimList.Sample
SPIN,1020,1,"<?xml version=""1.0""?>\n<Clock xmlns:dt=""urn:schemas-microsoft-com:datatypes""><Description dt:dt=""string"">E-Prime Primary Realtime Clock</Description><StartTime><Timestamp dt:dt=""int"">0</Timestamp><DateUtc dt:dt=""string"">2017-07-17T19:03:39Z</DateUtc></StartTime><FrequencyChanges><FrequencyChange><Frequency dt:dt=""r8"">2923085</Frequency><Timestamp dt:dt=""r8"">761216099753</Timestamp><Current dt:dt=""r8"">0</Current><DateUtc dt:dt=""string"">2017-07-17T19:03:39Z</DateUtc></FrequencyChange></FrequencyChanges></Clock>\n",59.944,1,1007441422,07-17-2017,14:03:39,7:03:39 PM,1,A180711_2T.wav,The BALL is BOUNCING very HIGH.   ,2Talker,TypeSPINProc,StimList,ball{SPACE}ticking{SPACE}clock{ENTER}{ESCAPE},16123,76238,11,1,1
SPIN,1020,1,"<?xml version=""1.0""?>\n<Clock xmlns:dt=""urn:schemas-microsoft-com:datatypes""><Description dt:dt=""string"">E-Prime Primary Realtime Clock</Description><StartTime><Timestamp dt:dt=""int"">0</Timestamp><DateUtc dt:dt=""string"">2017-07-17T19:03:39Z</DateUtc></StartTime><FrequencyChanges><FrequencyChange><Frequency dt:dt=""r8"">2923085</Frequency><Timestamp dt:dt=""r8"">761216099753</Timestamp><Current dt:dt=""r8"">0</Current><DateUtc dt:dt=""string"">2017-07-17T19:03:39Z</DateUtc></FrequencyChange></FrequencyChanges></Clock>\n",59.944,1,1007441422,07-17-2017,14:03:39,7:03:39 PM,2,A180714_2T.wav,The ORANGE was VERY SWEET.   ,2Talker,TypeSPINProc,StimList,orange{SPACE}cup{SPACE}of{SPACE}coffee{ESCAPE},11189,89638,14,1,2
SPIN,1020,1,"<?xml version=""1.0""?>\n<Clock xmlns:dt=""urn:schemas-microsoft-com:datatypes""><Description dt:dt=""string"">E-Prime Primary Realtime Clock</Description><StartTime><Timestamp dt:dt=""int"">0</Timestamp><DateUtc dt:dt=""string"">2017-07-17T19:03:39Z</DateUtc></StartTime><FrequencyChanges><FrequencyChange><Frequency dt:dt=""r8"">2923085</Frequency><Timestamp dt:dt=""r8"">761216099753</Timestamp><Current dt:dt=""r8"">0</Current><DateUtc dt:dt=""string"">2017-07-17T19:03:39Z</DateUtc></FrequencyChange></FrequencyChanges></Clock>\n",59.944,1,1007441422,07-17-2017,14:03:39,7:03:39 PM,3,A180705_2T.wav,The FRUIT IS on the GROUND.   ,2Talker,TypeSPINProc,StimList,fruit{SPACE}is{SPACE}on{SPACE}the{SPACE}ground{ESCAPE},11421,103549,5,1,3
SPIN,1020,1,"<?xml version=""1.0""?>\n<Clock xmlns:dt=""urn:schemas-microsoft-com:datatypes""><Description dt:dt=""string"">E-Prime Primary Realtime Clock</Description><StartTime><Timestamp dt:dt=""int"">0</Timestamp><DateUtc dt:dt=""string"">2017-07-17T19:03:39Z</DateUtc></StartTime><FrequencyChanges><FrequencyChange><Frequency dt:dt=""r8"">2923085</Frequency><Timestamp dt:dt=""r8"">761216099753</Timestamp><Current dt:dt=""r8"">0</Current><DateUtc dt:dt=""string"">2017-07-17T19:03:39Z</DateUtc></FrequencyChange></FrequencyChanges></Clock>\n",59.944,1,1007441422,07-17-2017,14:03:39,7:03:39 PM,4,A180704_2T.wav,SHE FOUND her PURSE.,2Talker,TypeSPINProc,StimList,she{SPACE}found{SPACE}her{SPACE}purse{ESCAPE},7893,113100,4,1,4
SPIN,1020,1,"<?xml version=""1.0""?>\n<Clock xmlns:dt=""urn:schemas-microsoft-com:datatypes""><Description dt:dt=""string"">E-Prime Primary Realtime Clock</Description><StartTime><Timestamp dt:dt=""int"">0</Timestamp><DateUtc dt:dt=""string"">2017-07-17T19:03:39Z</DateUtc></StartTime><FrequencyChanges><FrequencyChange><Frequency dt:dt=""r8"">2923085</Frequency><Timestamp dt:dt=""r8"">761216099753</Timestamp><Current dt:dt=""r8"">0</Current><DateUtc dt:dt=""string"">2017-07-17T19:03:39Z</DateUtc></FrequencyChange></FrequencyChanges></Clock>\n",59.944,1,1007441422,07-17-2017,14:03:39,7:03:39 PM,5,A180706_2T.wav,MOTHER GOT a SAUCEPAN.,2Talker,TypeSPINProc,StimList,parents{SPACE}family{ESCAPE},10456,124588,6,1,5
SPIN,1020,1,"<?xml version=""1.0""?>\n<Clock xmlns:dt=""urn:schemas-microsoft-com:datatypes""><Description dt:dt=""string"">E-Prime Primary Realtime Clock</Description><StartTime><Timestamp dt:dt=""int"">0</Timestamp><DateUtc dt:dt=""string"">2017-07-17T19:03:39Z</DateUtc></StartTime><FrequencyChanges><FrequencyChange><Frequency dt:dt=""r8"">2923085</Frequency><Timestamp dt:dt=""r8"">761216099753</Timestamp><Current dt:dt=""r8"">0</Current><DateUtc dt:dt=""string"">2017-07-17T19:03:39Z</DateUtc></FrequencyChange></FrequencyChanges></Clock>\n",59.944,1,1007441422,07-17-2017,14:03:39,7:03:39 PM,6,A180707_2T.wav,THEY WASHED in COLD WATER.   ,2Talker,TypeSPINProc,StimList,febraury{SPACE}has{SPACE}28{SPACE}days{ESCAPE},10147,135323,7,1,6
SPIN,1020,1,"<?xml version=""1.0""?>\n<Clock xmlns:dt=""urn:schemas-microsoft-com:datatypes""><Description dt:dt=""string"">E-Prime Primary Realtime Clock</Description><StartTime><Timestamp dt:dt=""int"">0</Timestamp><DateUtc dt:dt=""string"">2017-07-17T19:03:39Z</DateUtc></StartTime><FrequencyChanges><FrequencyChange><Frequency dt:dt=""r8"">2923085</Frequency><Timestamp dt:dt=""r8"">761216099753</Timestamp><Current dt:dt=""r8"">0</Current><DateUtc dt:dt=""string"">2017-07-17T19:03:39Z</DateUtc></FrequencyChange></FrequencyChanges></Clock>\n",59.944,1,1007441422,07-17-2017,14:03:39,7:03:39 PM,7,A180708_2T.wav,The YOUNG PEOPLE are DANCING.,2Talker,TypeSPINProc,StimList,february{SPACE}has{SPACE}28{SPACE}days{ESCAPE},8359,144979,8,1,7
SPIN,1020,1,"<?xml version=""1.0""?>\n<Clock xmlns:dt=""urn:schemas-microsoft-com:datatypes""><Description dt:dt=""string"">E-Prime Primary Realtime Clock</Description><StartTime><Timestamp dt:dt=""int"">0</Timestamp><DateUtc dt:dt=""string"">2017-07-17T19:03:39Z</DateUtc></StartTime><FrequencyChanges><FrequencyChange><Frequency dt:dt=""r8"">2923085</Frequency><Timestamp dt:dt=""r8"">761216099753</Timestamp><Current dt:dt=""r8"">0</Current><DateUtc dt:dt=""string"">2017-07-17T19:03:39Z</DateUtc></FrequencyChange></FrequencyChanges></Clock>\n",59.944,1,1007441422,07-17-2017,14:03:39,7:03:39 PM,8,A180709_2T.wav,The BUS LEFT EARLY.   ,2Talker,TypeSPINProc,StimList,for{SPACE}dessert{SPACE}you{SPACE}had{SPACE}apple{SPACE}pie{ESCAPE},12414,158410,9,1,8
SPIN,1020,1,"<?xml version=""1.0""?>\n<Clock xmlns:dt=""urn:schemas-microsoft-com:datatypes""><Description dt:dt=""string"">E-Prime Primary Realtime Clock</Description><StartTime><Timestamp dt:dt=""int"">0</Timestamp><DateUtc dt:dt=""string"">2017-07-17T19:03:39Z</DateUtc></StartTime><FrequencyChanges><FrequencyChange><Frequency dt:dt=""r8"">2923085</Frequency><Timestamp dt:dt=""r8"">761216099753</Timestamp><Current dt:dt=""r8"">0</Current><DateUtc dt:dt=""string"">2017-07-17T19:03:39Z</DateUtc></FrequencyChange></FrequencyChanges></Clock>\n",59.944,1,1007441422,07-17-2017,14:03:39,7:03:39 PM,9,A181007_SSN.wav,The DOG JUMPED ON the CHAIR.   ,SSN,TypeSPINProc,StimList,the{SPACE}dog{SPACE}jumped{SPACE}on{SPACE}the{SPACE}chair{ESCAPE},9202,168577,39,1,9
SPIN,1020,1,"<?xml version=""1.0""?>\n<Clock xmlns:dt=""urn:schemas-microsoft-com:datatypes""><Description dt:dt=""string"">E-Prime Primary Realtime Clock</Description><StartTime><Timestamp dt:dt=""int"">0</Timestamp><DateUtc dt:dt=""string"">2017-07-17T19:03:39Z</DateUtc></StartTime><FrequencyChanges><FrequencyChange><Frequency dt:dt=""r8"">2923085</Frequency><Timestamp dt:dt=""r8"">761216099753</Timestamp><Current dt:dt=""r8"">0</Current><DateUtc dt:dt=""string"">2017-07-17T19:03:39Z</DateUtc></FrequencyChange></FrequencyChanges></Clock>\n",59.944,1,1007441422,07-17-2017,14:03:39,7:03:39 PM,10,A181501_1T.wav,A MAN is TURNING the FAUCET.   ,1T,TypeSPINProc,StimList,birds{SPACE}build{SPACE}their{SPACE}nests{SPACE}in{SPACE}trees{LEFTARROW}{LEFTARROW}{LEFTARROW}{ESCAPE},16128,186296,49,1,10
SPIN,1020,1,"<?xml version=""1.0""?>\n<Clock xmlns:dt=""urn:schemas-microsoft-com:datatypes""><Description dt:dt=""string"">E-Prime Primary Realtime Clock</Description><StartTime><Timestamp dt:dt=""int"">0</Timestamp><DateUtc dt:dt=""string"">2017-07-17T19:03:39Z</DateUtc></StartTime><FrequencyChanges><FrequencyChange><Frequency dt:dt=""r8"">2923085</Frequency><Timestamp dt:dt=""r8"">761216099753</Timestamp><Current dt:dt=""r8"">0</Current><DateUtc dt:dt=""string"">2017-07-17T19:03:39Z</DateUtc></FrequencyChange></FrequencyChanges></Clock>\n",59.944,1,1007441422,07-17-2017,14:03:39,7:03:39 PM,11,A181507_1T.wav,Some NICE PEOPLE are COMING.   ,1T,TypeSPINProc,StimList,some{SPACE}nice{SPACE}people{SPACE}are{SPACE}coming{ESCAPE},7363,194664,55,1,11
SPIN,1020,1,"<?xml version=""1.0""?>\n<Clock xmlns:dt=""urn:schemas-microsoft-com:datatypes""><Description dt:dt=""string"">E-Prime Primary Realtime Clock</Description><StartTime><Timestamp dt:dt=""int"">0</Timestamp><DateUtc dt:dt=""string"">2017-07-17T19:03:39Z</DateUtc></StartTime><FrequencyChanges><FrequencyChange><Frequency dt:dt=""r8"">2923085</Frequency><Timestamp dt:dt=""r8"">761216099753</Timestamp><Current dt:dt=""r8"">0</Current><DateUtc dt:dt=""string"">2017-07-17T19:03:39Z</DateUtc></FrequencyChange></FrequencyChanges></Clock>\n",59.944,1,1007441422,07-17-2017,14:03:39,7:03:39 PM,12,A181508_1T.wav,SHE BUMPED her HEAD.   ,1T,TypeSPINProc,StimList,she{SPACE}bumped{SPACE}her{SPACE}head{ESCAPE},7841,203367,56,1,12
SPIN,1020,1,"<?xml version=""1.0""?>\n<Clock xmlns:dt=""urn:schemas-microsoft-com:datatypes""><Description dt:dt=""string"">E-Prime Primary Realtime Clock</Description><StartTime><Timestamp dt:dt=""int"">0</Timestamp><DateUtc dt:dt=""string"">2017-07-17T19:03:39Z</DateUtc></StartTime><FrequencyChanges><FrequencyChange><Frequency dt:dt=""r8"">2923085</Frequency><Timestamp dt:dt=""r8"">761216099753</Timestamp><Current dt:dt=""r8"">0</Current><DateUtc dt:dt=""string"">2017-07-17T19:03:39Z</DateUtc></FrequencyChange></FrequencyChanges></Clock>\n",59.944,1,1007441422,07-17-2017,14:03:39,7:03:39 PM,13,A180710_2T.wav,THEY had TWO EMPTY BOTTLES.   ,2Talker,TypeSPINProc,StimList,they{SPACE}had{SPACE}two{SPACE}empty{SPACE}bottles{SPACE}{ESCAPE},9108,213959,10,1,13
SPIN,1020,1,"<?xml version=""1.0""?>\n<Clock xmlns:dt=""urn:schemas-microsoft-com:datatypes""><Description dt:dt=""string"">E-Prime Primary Realtime Clock</Description><StartTime><Timestamp dt:dt=""int"">0</Timestamp><DateUtc dt:dt=""string"">2017-07-17T19:03:39Z</DateUtc></StartTime><FrequencyChanges><FrequencyChange><Frequency dt:dt=""r8"">2923085</Frequency><Timestamp dt:dt=""r8"">761216099753</Timestamp><Current dt:dt=""r8"">0</Current><DateUtc dt:dt=""string"">2017-07-17T19:03:39Z</DateUtc></FrequencyChange></FrequencyChanges></Clock>\n",59.944,1,1007441422,07-17-2017,14:03:39,7:03:39 PM,14,A181015_SSN.wav,The BUCKETS HOLD WATER.   ,SSN,TypeSPINProc,StimList,the{SPACE}buckets{SPACE}were{SPACE}walking{ESCAPE},8598,223942,47,1,14
SPIN,1020,1,"<?xml version=""1.0""?>\n<Clock xmlns:dt=""urn:schemas-microsoft-com:datatypes""><Description dt:dt=""string"">E-Prime Primary Realtime Clock</Description><StartTime><Timestamp dt:dt=""int"">0</Timestamp><DateUtc dt:dt=""string"">2017-07-17T19:03:39Z</DateUtc></StartTime><FrequencyChanges><FrequencyChange><Frequency dt:dt=""r8"">2923085</Frequency><Timestamp dt:dt=""r8"">761216099753</Timestamp><Current dt:dt=""r8"">0</Current><DateUtc dt:dt=""string"">2017-07-17T19:03:39Z</DateUtc></FrequencyChange></FrequencyChanges></Clock>\n",59.944,1,1007441422,07-17-2017,14:03:39,7:03:39 PM,15,A180701_2T.wav,The CHILDREN DROPPED the BAG,2Talker,TypeSPINProc,StimList,the{SPACE}children{SPACE}dropped{SPACE}the{SPACE}bag{ESCAPE},9857,235094,1,1,15
SPIN,1020,1,"<?xml version=""1.0""?>\n<Clock xmlns:dt=""urn:schemas-microsoft-com:datatypes""><Description dt:dt=""string"">E-Prime Primary Realtime Clock</Description><StartTime><Timestamp dt:dt=""int"">0</Timestamp><DateUtc dt:dt=""string"">2017-07-17T19:03:39Z</DateUtc></StartTime><FrequencyChanges><FrequencyChange><Frequency dt:dt=""r8"">2923085</Frequency><Timestamp dt:dt=""r8"">761216099753</Timestamp><Current dt:dt=""r8"">0</Current><DateUtc dt:dt=""string"">2017-07-17T19:03:39Z</DateUtc></FrequencyChange></FrequencyChanges></Clock>\n",59.944,1,1007441422,07-17-2017,14:03:39,7:03:39 PM,16,A180908_8T.wav,HE LISTENED TO his FATHER.   ,SSN,TypeSPINProc,StimList,he{SPACE}listened{SPACE}to{SPACE}his{SPACE}father{ESCAPE},7729,243693,24,1,16
SPIN,1020,1,"<?xml version=""1.0""?>\n<Clock xmlns:dt=""urn:schemas-microsoft-com:datatypes""><Description dt:dt=""string"">E-Prime Primary Realtime Clock</Description><StartTime><Timestamp dt:dt=""int"">0</Timestamp><DateUtc dt:dt=""string"">2017-07-17T19:03:39Z</DateUtc></StartTime><FrequencyChanges><FrequencyChange><Frequency dt:dt=""r8"">2923085</Frequency><Timestamp dt:dt=""r8"">761216099753</Timestamp><Current dt:dt=""r8"">0</Current><DateUtc dt:dt=""string"">2017-07-17T19:03:39Z</DateUtc></FrequencyChange></FrequencyChanges></Clock>\n",59.944,1,1007441422,07-17-2017,14:03:39,7:03:39 PM,17,A181505_1T.wav,The DRIVER STARTED the ENGINE.   ,1T,TypeSPINProc,StimList,the{SPACE}driver{SPACE}started{SPACE}the{SPACE}engine{SPACE}{ESCAPE},20117,264756,53,1,17
SPIN,1020,1,"<?xml version=""1.0""?>\n<Clock xmlns:dt=""urn:schemas-microsoft-com:datatypes""><Description dt:dt=""string"">E-Prime Primary Realtime Clock</Description><StartTime><Timestamp dt:dt=""int"">0</Timestamp><DateUtc dt:dt=""string"">2017-07-17T19:03:39Z</DateUtc></StartTime><FrequencyChanges><FrequencyChange><Frequency dt:dt=""r8"">2923085</Frequency><Timestamp dt:dt=""r8"">761216099753</Timestamp><Current dt:dt=""r8"">0</Current><DateUtc dt:dt=""string"">2017-07-17T19:03:39Z</DateUtc></FrequencyChange></FrequencyChanges></Clock>\n",59.944,1,1007441422,07-17-2017,14:03:39,7:03:39 PM,18,A181513_1T.wav,THEY WALKED ACROSS the GRASS.   ,1T,TypeSPINProc,StimList,they{SPACE}walked{SPACE}across{SPACE}the{SPACE}grass{ESCAPE},11018,276827,61,1,18
SPIN,1020,1,"<?xml version=""1.0""?>\n<Clock xmlns:dt=""urn:schemas-microsoft-com:datatypes""><Description dt:dt=""string"">E-Prime Primary Realtime Clock</Description><StartTime><Timestamp dt:dt=""int"">0</Timestamp><DateUtc dt:dt=""string"">2017-07-17T19:03:39Z</DateUtc></StartTime><FrequencyChanges><FrequencyChange><Frequency dt:dt=""r8"">2923085</Frequency><Timestamp dt:dt=""r8"">761216099753</Timestamp><Current dt:dt=""r8"">0</Current><DateUtc dt:dt=""string"">2017-07-17T19:03:39Z</DateUtc></FrequencyChange></FrequencyChanges></Clock>\n",59.944,1,1007441422,07-17-2017,14:03:39,7:03:39 PM,19,A181510_1T.wav,The RAINCOAT is HANGING UP.  ,1T,TypeSPINProc,StimList,the{SPACE}raincoat{SPACE}is{SPACE}hanging{SPACE}up{ESCAPE},10200,287987,58,1,19
SPIN,1020,1,"<?xml version=""1.0""?>\n<Clock xmlns:dt=""urn:schemas-microsoft-com:datatypes""><Description dt:dt=""string"">E-Prime Primary Realtime Clock</Description><StartTime><Timestamp dt:dt=""int"">0</Timestamp><DateUtc dt:dt=""string"">2017-07-17T19:03:39Z</DateUtc></StartTime><FrequencyChanges><FrequencyChange><Frequency dt:dt=""r8"">2923085</Frequency><Timestamp dt:dt=""r8"">761216099753</Timestamp><Current dt:dt=""r8"">0</Current><DateUtc dt:dt=""string"">2017-07-17T19:03:39Z</DateUtc></FrequencyChange></FrequencyChanges></Clock>\n",59.944,1,1007441422,07-17-2017,14:03:39,7:03:39 PM,20,A181003_SSN.wav,THEY SAT on a WOODEN BENCH.   ,SSN,TypeSPINProc,StimList,they{SPACE}sat{SPACE}on{SPACE}a{SPACE}wooden{SPACE}bench{ESCAPE},9277,298274,35,1,20
SPIN,1020,1,"<?xml version=""1.0""?>\n<Clock xmlns:dt=""urn:schemas-microsoft-com:datatypes""><Description dt:dt=""string"">E-Prime Primary Realtime Clock</Description><StartTime><Timestamp dt:dt=""int"">0</Timestamp><DateUtc dt:dt=""string"">2017-07-17T19:03:39Z</DateUtc></StartTime><FrequencyChanges><FrequencyChange><Frequency dt:dt=""r8"">2923085</Frequency><Timestamp dt:dt=""r8"">761216099753</Timestamp><Current dt:dt=""r8"">0</Current><DateUtc dt:dt=""string"">2017-07-17T19:03:39Z</DateUtc></FrequencyChange></FrequencyChanges></Clock>\n",59.944,1,1007441422,07-17-2017,14:03:39,7:03:39 PM,21,A180702_2T.wav,The DOG CAME BACK.   ,2Talker,TypeSPINProc,StimList,came{SPACE}for{SPACE}dinner{SPACE}{ESCAPE},8777,308050,2,1,21
SPIN,1020,1,"<?xml version=""1.0""?>\n<Clock xmlns:dt=""urn:schemas-microsoft-com:datatypes""><Description dt:dt=""string"">E-Prime Primary Realtime Clock</Description><StartTime><Timestamp dt:dt=""int"">0</Timestamp><DateUtc dt:dt=""string"">2017-07-17T19:03:39Z</DateUtc></StartTime><FrequencyChanges><FrequencyChange><Frequency dt:dt=""r8"">2923085</Frequency><Timestamp dt:dt=""r8"">761216099753</Timestamp><Current dt:dt=""r8"">0</Current><DateUtc dt:dt=""string"">2017-07-17T19:03:39Z</DateUtc></FrequencyChange></FrequencyChanges></Clock>\n",59.944,1,1007441422,07-17-2017,14:03:39,7:03:39 PM,22,A181503_1T.wav,HE is SUCKING his THUMB.   ,1T,TypeSPINProc,StimList,he{SPACE}is{SPACE}sucking{SPACE}his{SPACE}thumb{SPACE}{ESCAPE},8056,318473,51,1,22
SPIN,1020,1,"<?xml version=""1.0""?>\n<Clock xmlns:dt=""urn:schemas-microsoft-com:datatypes""><Description dt:dt=""string"">E-Prime Primary Realtime Clock</Description><StartTime><Timestamp dt:dt=""int"">0</Timestamp><DateUtc dt:dt=""string"">2017-07-17T19:03:39Z</DateUtc></StartTime><FrequencyChanges><FrequencyChange><Frequency dt:dt=""r8"">2923085</Frequency><Timestamp dt:dt=""r8"">761216099753</Timestamp><Current dt:dt=""r8"">0</Current><DateUtc dt:dt=""string"">2017-07-17T19:03:39Z</DateUtc></FrequencyChange></FrequencyChanges></Clock>\n",59.944,1,1007441422,07-17-2017,14:03:39,7:03:39 PM,23,A181514_1T.wav,MOTHER TIED the STRING.   ,1T,TypeSPINProc,StimList,mother{SPACE}tied{SPACE}the{SPACE}string{SPACE}{ESCAPE},8158,327784,62,1,23
SPIN,1020,1,"<?xml version=""1.0""?>\n<Clock xmlns:dt=""urn:schemas-microsoft-com:datatypes""><Description dt:dt=""string"">E-Prime Primary Realtime Clock</Description><StartTime><Timestamp dt:dt=""int"">0</Timestamp><DateUtc dt:dt=""string"">2017-07-17T19:03:39Z</DateUtc></StartTime><FrequencyChanges><FrequencyChange><Frequency dt:dt=""r8"">2923085</Frequency><Timestamp dt:dt=""r8"">761216099753</Timestamp><Current dt:dt=""r8"">0</Current><DateUtc dt:dt=""string"">2017-07-17T19:03:39Z</DateUtc></FrequencyChange></FrequencyChanges></Clock>\n",59.944,1,1007441422,07-17-2017,14:03:39,7:03:39 PM,24,A180905_8T.wav,The TABLE has THREE LEGS.   ,SSN,TypeSPINProc,StimList,the{SPACE}table{SPACE}has{SPACE}three{SPACE}legs{SPACE}{ESCAPE},8017,336768,21,1,24
SPIN,1020,1,"<?xml version=""1.0""?>\n<Clock xmlns:dt=""urn:schemas-microsoft-com:datatypes""><Description dt:dt=""string"">E-Prime Primary Realtime Clock</Description><StartTime><Timestamp dt:dt=""int"">0</Timestamp><DateUtc dt:dt=""string"">2017-07-17T19:03:39Z</DateUtc></StartTime><FrequencyChanges><FrequencyChange><Frequency dt:dt=""r8"">2923085</Frequency><Timestamp dt:dt=""r8"">761216099753</Timestamp><Current dt:dt=""r8"">0</Current><DateUtc dt:dt=""string"">2017-07-17T19:03:39Z</DateUtc></FrequencyChange></FrequencyChanges></Clock>\n",59.944,1,1007441422,07-17-2017,14:03:39,7:03:39 PM,25,A180916_8T.wav,The CAR HIT a WALL.   ,SSN,TypeSPINProc,StimList,the{SPACE}car{SPACE}hit{SPACE}a{SPACE}wall{SPACE}{ESCAPE},5906,343816,32,1,25
SPIN,1020,1,"<?xml version=""1.0""?>\n<Clock xmlns:dt=""urn:schemas-microsoft-com:datatypes""><Description dt:dt=""string"">E-Prime Primary Realtime Clock</Description><StartTime><Timestamp dt:dt=""int"">0</Timestamp><DateUtc dt:dt=""string"">2017-07-17T19:03:39Z</DateUtc></StartTime><FrequencyChanges><FrequencyChange><Frequency dt:dt=""r8"">2923085</Frequency><Timestamp dt:dt=""r8"">761216099753</Timestamp><Current dt:dt=""r8"">0</Current><DateUtc dt:dt=""string"">2017-07-17T19:03:39Z</DateUtc></FrequencyChange></FrequencyChanges></Clock>\n",59.944,1,1007441422,07-17-2017,14:03:39,7:03:39 PM,26,A180913_8T.wav,The DINNER PLATE is HOT.   ,SSN,TypeSPINProc,StimList,the{SPACE}dinner{SPACE}played{SPACE}{ESCAPE},7663,352463,29,1,26
SPIN,1020,1,"<?xml version=""1.0""?>\n<Clock xmlns:dt=""urn:schemas-microsoft-com:datatypes""><Description dt:dt=""string"">E-Prime Primary Realtime Clock</Description><StartTime><Timestamp dt:dt=""int"">0</Timestamp><DateUtc dt:dt=""string"">2017-07-17T19:03:39Z</DateUtc></StartTime><FrequencyChanges><FrequencyChange><Frequency dt:dt=""r8"">2923085</Frequency><Timestamp dt:dt=""r8"">761216099753</Timestamp><Current dt:dt=""r8"">0</Current><DateUtc dt:dt=""string"">2017-07-17T19:03:39Z</DateUtc></FrequencyChange></FrequencyChanges></Clock>\n",59.944,1,1007441422,07-17-2017,14:03:39,7:03:39 PM,27,A181504_1T.wav,The SHOP CLOSED for LUNCH.   ,1T,TypeSPINProc,StimList,the{SPACE}football{SPACE}hit{SPACE}the{SPACE}goalpost{SPACE}{ESCAPE},8841,362366,52,1,27
SPIN,1020,1,"<?xml version=""1.0""?>\n<Clock xmlns:dt=""urn:schemas-microsoft-com:datatypes""><Description dt:dt=""string"">E-Prime Primary Realtime Clock</Description><StartTime><Timestamp dt:dt=""int"">0</Timestamp><DateUtc dt:dt=""string"">2017-07-17T19:03:39Z</DateUtc></StartTime><FrequencyChanges><FrequencyChange><Frequency dt:dt=""r8"">2923085</Frequency><Timestamp dt:dt=""r8"">761216099753</Timestamp><Current dt:dt=""r8"">0</Current><DateUtc dt:dt=""string"">2017-07-17T19:03:39Z</DateUtc></FrequencyChange></FrequencyChanges></Clock>\n",59.944,1,1007441422,07-17-2017,14:03:39,7:03:39 PM,28,A180914_8T.wav,The TRAIN is MOVING FAST.   ,SSN,TypeSPINProc,StimList,the{SPACE}train{SPACE}is{SPACE}moving{SPACE}fast{SPACE}{ESCAPE},7387,370654,30,1,28
SPIN,1020,1,"<?xml version=""1.0""?>\n<Clock xmlns:dt=""urn:schemas-microsoft-com:datatypes""><Description dt:dt=""string"">E-Prime Primary Realtime Clock</Description><StartTime><Timestamp dt:dt=""int"">0</Timestamp><DateUtc dt:dt=""string"">2017-07-17T19:03:39Z</DateUtc></StartTime><FrequencyChanges><FrequencyChange><Frequency dt:dt=""r8"">2923085</Frequency><Timestamp dt:dt=""r8"">761216099753</Timestamp><Current dt:dt=""r8"">0</Current><DateUtc dt:dt=""string"">2017-07-17T19:03:39Z</DateUtc></FrequencyChange></FrequencyChanges></Clock>\n",59.944,1,1007441422,07-17-2017,14:03:39,7:03:39 PM,29,A181014_SSN.wav,The GROUND was VERY HARD.   ,SSN,TypeSPINProc,StimList,the{SPACE}ground{SPACE}was{SPACE}very{SPACE}hard{SPACE}{ESCAPE},7073,378798,46,1,29
SPIN,1020,1,"<?xml version=""1.0""?>\n<Clock xmlns:dt=""urn:schemas-microsoft-com:datatypes""><Description dt:dt=""string"">E-Prime Primary Realtime Clock</Description><StartTime><Timestamp dt:dt=""int"">0</Timestamp><DateUtc dt:dt=""string"">2017-07-17T19:03:39Z</DateUtc></StartTime><FrequencyChanges><FrequencyChange><Frequency dt:dt=""r8"">2923085</Frequency><Timestamp dt:dt=""r8"">761216099753</Timestamp><Current dt:dt=""r8"">0</Current><DateUtc dt:dt=""string"">2017-07-17T19:03:39Z</DateUtc></FrequencyChange></FrequencyChanges></Clock>\n",59.944,1,1007441422,07-17-2017,14:03:39,7:03:39 PM,30,A180915_8T.wav,The CHILD DRANK some MILK.   ,SSN,TypeSPINProc,StimList,the{SPACE}child{SPACE}drank{SPACE}some{SPACE}milk{SPACE}{ESCAPE},9699,389365,31,1,30
SPIN,1020,1,"<?xml version=""1.0""?>\n<Clock xmlns:dt=""urn:schemas-microsoft-com:datatypes""><Description dt:dt=""string"">E-Prime Primary Realtime Clock</Description><StartTime><Timestamp dt:dt=""int"">0</Timestamp><DateUtc dt:dt=""string"">2017-07-17T19:03:39Z</DateUtc></StartTime><FrequencyChanges><FrequencyChange><Frequency dt:dt=""r8"">2923085</Frequency><Timestamp dt:dt=""r8"">761216099753</Timestamp><Current dt:dt=""r8"">0</Current><DateUtc dt:dt=""string"">2017-07-17T19:03:39Z</DateUtc></FrequencyChange></FrequencyChanges></Clock>\n",59.944,1,1007441422,07-17-2017,14:03:39,7:03:39 PM,31,A181516_1T.wav,The PUPPY PLAYS with a BALL.   ,1T,TypeSPINProc,StimList,the{SPACE}puppy{SPACE}plays{SPACE}with{SPACE}a{SPACE}ball{ESCAPE},9456,400316,64,1,31
SPIN,1020,1,"<?xml version=""1.0""?>\n<Clock xmlns:dt=""urn:schemas-microsoft-com:datatypes""><Description dt:dt=""string"">E-Prime Primary Realtime Clock</Description><StartTime><Timestamp dt:dt=""int"">0</Timestamp><DateUtc dt:dt=""string"">2017-07-17T19:03:39Z</DateUtc></StartTime><FrequencyChanges><FrequencyChange><Frequency dt:dt=""r8"">2923085</Frequency><Timestamp dt:dt=""r8"">761216099753</Timestamp><Current dt:dt=""r8"">0</Current><DateUtc dt:dt=""string"">2017-07-17T19:03:39Z</DateUtc></FrequencyChange></FrequencyChanges></Clock>\n",59.944,1,1007441422,07-17-2017,14:03:39,7:03:39 PM,32,A180904_8T.wav,SHE STOOD near her WINDOW.   ,8Talker,TypeSPINProc,StimList,x{ESCAPE},6519,407572,20,1,32
SPIN,1020,1,"<?xml version=""1.0""?>\n<Clock xmlns:dt=""urn:schemas-microsoft-com:datatypes""><Description dt:dt=""string"">E-Prime Primary Realtime Clock</Description><StartTime><Timestamp dt:dt=""int"">0</Timestamp><DateUtc dt:dt=""string"">2017-07-17T19:03:39Z</DateUtc></StartTime><FrequencyChanges><FrequencyChange><Frequency dt:dt=""r8"">2923085</Frequency><Timestamp dt:dt=""r8"">761216099753</Timestamp><Current dt:dt=""r8"">0</Current><DateUtc dt:dt=""string"">2017-07-17T19:03:39Z</DateUtc></FrequencyChange></FrequencyChanges></Clock>\n",59.944,1,1007441422,07-17-2017,14:03:39,7:03:39 PM,33,A180703_2T.wav,The FLOOR LOOKED CLEAN. ,2Talker,TypeSPINProc,StimList,people{SPACE}wore{SPACE}shoes{SPACE}{ESCAPE},9488,420467,3,1,33
SPIN,1020,1,"<?xml version=""1.0""?>\n<Clock xmlns:dt=""urn:schemas-microsoft-com:datatypes""><Description dt:dt=""string"">E-Prime Primary Realtime Clock</Description><StartTime><Timestamp dt:dt=""int"">0</Timestamp><DateUtc dt:dt=""string"">2017-07-17T19:03:39Z</DateUtc></StartTime><FrequencyChanges><FrequencyChange><Frequency dt:dt=""r8"">2923085</Frequency><Timestamp dt:dt=""r8"">761216099753</Timestamp><Current dt:dt=""r8"">0</Current><DateUtc dt:dt=""string"">2017-07-17T19:03:39Z</DateUtc></FrequencyChange></FrequencyChanges></Clock>\n",59.944,1,1007441422,07-17-2017,14:03:39,7:03:39 PM,34,A180909_8T.wav,The DISHCLOTH is VERY WET.  ,8Talker,TypeSPINProc,StimList,dishwasher{ESCAPE},6824,428179,25,1,34
SPIN,1020,1,"<?xml version=""1.0""?>\n<Clock xmlns:dt=""urn:schemas-microsoft-com:datatypes""><Description dt:dt=""string"">E-Prime Primary Realtime Clock</Description><StartTime><Timestamp dt:dt=""int"">0</Timestamp><DateUtc dt:dt=""string"">2017-07-17T19:03:39Z</DateUtc></StartTime><FrequencyChanges><FrequencyChange><Frequency dt:dt=""r8"">2923085</Frequency><Timestamp dt:dt=""r8"">761216099753</Timestamp><Current dt:dt=""r8"">0</Current><DateUtc dt:dt=""string"">2017-07-17T19:03:39Z</DateUtc></FrequencyChange></FrequencyChanges></Clock>\n",59.944,1,1007441422,07-17-2017,14:03:39,7:03:39 PM,35,A180712_2T.wav,FATHER FORGOT the BREAD.   ,2Talker,TypeSPINProc,StimList,father{SPACE}forgot{SPACE}his{SPACE}friend{SPACE}{ESCAPE},8484,437530,12,1,35
SPIN,1020,1,"<?xml version=""1.0""?>\n<Clock xmlns:dt=""urn:schemas-microsoft-com:datatypes""><Description dt:dt=""string"">E-Prime Primary Realtime Clock</Description><StartTime><Timestamp dt:dt=""int"">0</Timestamp><DateUtc dt:dt=""string"">2017-07-17T19:03:39Z</DateUtc></StartTime><FrequencyChanges><FrequencyChange><Frequency dt:dt=""r8"">2923085</Frequency><Timestamp dt:dt=""r8"">761216099753</Timestamp><Current dt:dt=""r8"">0</Current><DateUtc dt:dt=""string"">2017-07-17T19:03:39Z</DateUtc></FrequencyChange></FrequencyChanges></Clock>\n",59.944,1,1007441422,07-17-2017,14:03:39,7:03:39 PM,36,A180912_8T.wav,The LADY PACKED her BAG.   ,SSN,TypeSPINProc,StimList,the{SPACE}lady{SPACE}packed{SPACE}her{SPACE}bag{ESCAPE},10033,448738,28,1,36
SPIN,1020,1,"<?xml version=""1.0""?>\n<Clock xmlns:dt=""urn:schemas-microsoft-com:datatypes""><Description dt:dt=""string"">E-Prime Primary Realtime Clock</Description><StartTime><Timestamp dt:dt=""int"">0</Timestamp><DateUtc dt:dt=""string"">2017-07-17T19:03:39Z</DateUtc></StartTime><FrequencyChanges><FrequencyChange><Frequency dt:dt=""r8"">2923085</Frequency><Timestamp dt:dt=""r8"">761216099753</Timestamp><Current dt:dt=""r8"">0</Current><DateUtc dt:dt=""string"">2017-07-17T19:03:39Z</DateUtc></FrequencyChange></FrequencyChanges></Clock>\n",59.944,1,1007441422,07-17-2017,14:03:39,7:03:39 PM,37,A181502_1T.wav,The OVEN is TOO HOT.,1T,TypeSPINProc,StimList,the{SPACE}oven{SPACE}is{SPACE}too{SPACE}hot{SPACE}{ESCAPE},7364,456929,50,1,37
SPIN,1020,1,"<?xml version=""1.0""?>\n<Clock xmlns:dt=""urn:schemas-microsoft-com:datatypes""><Description dt:dt=""string"">E-Prime Primary Realtime Clock</Description><StartTime><Timestamp dt:dt=""int"">0</Timestamp><DateUtc dt:dt=""string"">2017-07-17T19:03:39Z</DateUtc></StartTime><FrequencyChanges><FrequencyChange><Frequency dt:dt=""r8"">2923085</Frequency><Timestamp dt:dt=""r8"">761216099753</Timestamp><Current dt:dt=""r8"">0</Current><DateUtc dt:dt=""string"">2017-07-17T19:03:39Z</DateUtc></FrequencyChange></FrequencyChanges></Clock>\n",59.944,1,1007441422,07-17-2017,14:03:39,7:03:39 PM,38,A180906_8T.wav,A LETTER FELL on the FLOOR.   ,SSN,TypeSPINProc,StimList,x{ENTER}{ESCAPE},5314,462753,22,1,38
SPIN,1020,1,"<?xml version=""1.0""?>\n<Clock xmlns:dt=""urn:schemas-microsoft-com:datatypes""><Description dt:dt=""string"">E-Prime Primary Realtime Clock</Description><StartTime><Timestamp dt:dt=""int"">0</Timestamp><DateUtc dt:dt=""string"">2017-07-17T19:03:39Z</DateUtc></StartTime><FrequencyChanges><FrequencyChange><Frequency dt:dt=""r8"">2923085</Frequency><Timestamp dt:dt=""r8"">761216099753</Timestamp><Current dt:dt=""r8"">0</Current><DateUtc dt:dt=""string"">2017-07-17T19:03:39Z</DateUtc></FrequencyChange></FrequencyChanges></Clock>\n",59.944,1,1007441422,07-17-2017,14:03:39,7:03:39 PM,39,A180910_8T.wav,THEY WENT on a VACATION.   ,SSN,TypeSPINProc,StimList,they{SPACE}went{SPACE}on{SPACE}vacation{ESCAPE},9724,473920,26,1,39
SPIN,1020,1,"<?xml version=""1.0""?>\n<Clock xmlns:dt=""urn:schemas-microsoft-com:datatypes""><Description dt:dt=""string"">E-Prime Primary Realtime Clock</Description><StartTime><Timestamp dt:dt=""int"">0</Timestamp><DateUtc dt:dt=""string"">2017-07-17T19:03:39Z</DateUtc></StartTime><FrequencyChanges><FrequencyChange><Frequency dt:dt=""r8"">2923085</Frequency><Timestamp dt:dt=""r8"">761216099753</Timestamp><Current dt:dt=""r8"">0</Current><DateUtc dt:dt=""string"">2017-07-17T19:03:39Z</DateUtc></FrequencyChange></FrequencyChanges></Clock>\n",59.944,1,1007441422,07-17-2017,14:03:39,7:03:39 PM,40,A181509_1T.wav,THEY MET SOME FRIENDS.   ,1T,TypeSPINProc,StimList,they{SPACE}met{SPACE}some{SPACE}friends{SPACE}{ESCAPE},6966,481672,57,1,40
SPIN,1020,1,"<?xml version=""1.0""?>\n<Clock xmlns:dt=""urn:schemas-microsoft-com:datatypes""><Description dt:dt=""string"">E-Prime Primary Realtime Clock</Description><StartTime><Timestamp dt:dt=""int"">0</Timestamp><DateUtc dt:dt=""string"">2017-07-17T19:03:39Z</DateUtc></StartTime><FrequencyChanges><FrequencyChange><Frequency dt:dt=""r8"">2923085</Frequency><Timestamp dt:dt=""r8"">761216099753</Timestamp><Current dt:dt=""r8"">0</Current><DateUtc dt:dt=""string"">2017-07-17T19:03:39Z</DateUtc></FrequencyChange></FrequencyChanges></Clock>\n",59.944,1,1007441422,07-17-2017,14:03:39,7:03:39 PM,41,A181012_SSN.wav,The MILK was by the FRONT DOOR.   ,SSN,TypeSPINProc,StimList,the{SPACE}milk{SPACE}was{SPACE}by{SPACE}the{SPACE}front{SPACE}door{SPACE}{ESCAPE},12493,495039,44,1,41
SPIN,1020,1,"<?xml version=""1.0""?>\n<Clock xmlns:dt=""urn:schemas-microsoft-com:datatypes""><Description dt:dt=""string"">E-Prime Primary Realtime Clock</Description><StartTime><Timestamp dt:dt=""int"">0</Timestamp><DateUtc dt:dt=""string"">2017-07-17T19:03:39Z</DateUtc></StartTime><FrequencyChanges><FrequencyChange><Frequency dt:dt=""r8"">2923085</Frequency><Timestamp dt:dt=""r8"">761216099753</Timestamp><Current dt:dt=""r8"">0</Current><DateUtc dt:dt=""string"">2017-07-17T19:03:39Z</DateUtc></FrequencyChange></FrequencyChanges></Clock>\n",59.944,1,1007441422,07-17-2017,14:03:39,7:03:39 PM,42,A181016_SSN.wav,The CHICKEN LAID some EGGS.   ,SSN,TypeSPINProc,StimList,the{SPACE}chicken{SPACE}laid{SPACE}some{SPACE}eggs{ESCAPE},9645,505454,48,1,42
SPIN,1020,1,"<?xml version=""1.0""?>\n<Clock xmlns:dt=""urn:schemas-microsoft-com:datatypes""><Description dt:dt=""string"">E-Prime Primary Realtime Clock</Description><StartTime><Timestamp dt:dt=""int"">0</Timestamp><DateUtc dt:dt=""string"">2017-07-17T19:03:39Z</DateUtc></StartTime><FrequencyChanges><FrequencyChange><Frequency dt:dt=""r8"">2923085</Frequency><Timestamp dt:dt=""r8"">761216099753</Timestamp><Current dt:dt=""r8"">0</Current><DateUtc dt:dt=""string"">2017-07-17T19:03:39Z</DateUtc></FrequencyChange></FrequencyChanges></Clock>\n",59.944,1,1007441422,07-17-2017,14:03:39,7:03:39 PM,43,A181011_SSN.wav,HE BROKE his LEG.   ,SSN,TypeSPINProc,StimList,he{SPACE}rode{SPACE}his{SPACE}{ESCAPE},7595,514198,43,1,43
SPIN,1020,1,"<?xml version=""1.0""?>\n<Clock xmlns:dt=""urn:schemas-microsoft-com:datatypes""><Description dt:dt=""string"">E-Prime Primary Realtime Clock</Description><StartTime><Timestamp dt:dt=""int"">0</Timestamp><DateUtc dt:dt=""string"">2017-07-17T19:03:39Z</DateUtc></StartTime><FrequencyChanges><FrequencyChange><Frequency dt:dt=""r8"">2923085</Frequency><Timestamp dt:dt=""r8"">761216099753</Timestamp><Current dt:dt=""r8"">0</Current><DateUtc dt:dt=""string"">2017-07-17T19:03:39Z</DateUtc></FrequencyChange></FrequencyChanges></Clock>\n",59.944,1,1007441422,07-17-2017,14:03:39,7:03:39 PM,44,A180902_8T.wav,The YOUNG BOY LEFT HOME.   ,8Talker,TypeSPINProc,StimList,x{ESCAPE},5118,520078,18,1,44
SPIN,1020,1,"<?xml version=""1.0""?>\n<Clock xmlns:dt=""urn:schemas-microsoft-com:datatypes""><Description dt:dt=""string"">E-Prime Primary Realtime Clock</Description><StartTime><Timestamp dt:dt=""int"">0</Timestamp><DateUtc dt:dt=""string"">2017-07-17T19:03:39Z</DateUtc></StartTime><FrequencyChanges><FrequencyChange><Frequency dt:dt=""r8"">2923085</Frequency><Timestamp dt:dt=""r8"">761216099753</Timestamp><Current dt:dt=""r8"">0</Current><DateUtc dt:dt=""string"">2017-07-17T19:03:39Z</DateUtc></FrequencyChange></FrequencyChanges></Clock>\n",59.944,1,1007441422,07-17-2017,14:03:39,7:03:39 PM,45,A180901_8T.wav,The BOOK TELLS a STORY.   ,8Talker,TypeSPINProc,StimList,story{SPACE}{ESCAPE},4872,526005,17,1,45
SPIN,1020,1,"<?xml version=""1.0""?>\n<Clock xmlns:dt=""urn:schemas-microsoft-com:datatypes""><Description dt:dt=""string"">E-Prime Primary Realtime Clock</Description><StartTime><Timestamp dt:dt=""int"">0</Timestamp><DateUtc dt:dt=""string"">2017-07-17T19:03:39Z</DateUtc></StartTime><FrequencyChanges><FrequencyChange><Frequency dt:dt=""r8"">2923085</Frequency><Timestamp dt:dt=""r8"">761216099753</Timestamp><Current dt:dt=""r8"">0</Current><DateUtc dt:dt=""string"">2017-07-17T19:03:39Z</DateUtc></FrequencyChange></FrequencyChanges></Clock>\n",59.944,1,1007441422,07-17-2017,14:03:39,7:03:39 PM,46,A181013_SSN.wav,The SHIRTS are HANGING in the CLOSET.   ,SSN,TypeSPINProc,StimList,the{SPACE}shirts{SPACE}are{SPACE}hanging{SPACE}in{SPACE}the{SPACE}closet{ENTER}{ESCAPE},10625,537413,45,1,46
SPIN,1020,1,"<?xml version=""1.0""?>\n<Clock xmlns:dt=""urn:schemas-microsoft-com:datatypes""><Description dt:dt=""string"">E-Prime Primary Realtime Clock</Description><StartTime><Timestamp dt:dt=""int"">0</Timestamp><DateUtc dt:dt=""string"">2017-07-17T19:03:39Z</DateUtc></StartTime><FrequencyChanges><FrequencyChange><Frequency dt:dt=""r8"">2923085</Frequency><Timestamp dt:dt=""r8"">761216099753</Timestamp><Current dt:dt=""r8"">0</Current><DateUtc dt:dt=""string"">2017-07-17T19:03:39Z</DateUtc></FrequencyChange></FrequencyChanges></Clock>\n",59.944,1,1007441422,07-17-2017,14:03:39,7:03:39 PM,47,A180907_8T.wav,The FIVE MEN are WORKING.    ,8Talker,TypeSPINProc,StimList,packages{SPACE}{ESCAPE},6019,544268,23,1,47
SPIN,1020,1,"<?xml version=""1.0""?>\n<Clock xmlns:dt=""urn:schemas-microsoft-com:datatypes""><Description dt:dt=""string"">E-Prime Primary Realtime Clock</Description><StartTime><Timestamp dt:dt=""int"">0</Timestamp><DateUtc dt:dt=""string"">2017-07-17T19:03:39Z</DateUtc></StartTime><FrequencyChanges><FrequencyChange><Frequency dt:dt=""r8"">2923085</Frequency><Timestamp dt:dt=""r8"">761216099753</Timestamp><Current dt:dt=""r8"">0</Current><DateUtc dt:dt=""string"">2017-07-17T19:03:39Z</DateUtc></FrequencyChange></FrequencyChanges></Clock>\n",59.944,1,1007441422,07-17-2017,14:03:39,7:03:39 PM,48,A181001_SSN.wav,A DISH TOWEL is by the SINK.   ,SSN,TypeSPINProc,StimList,the{SPACE}dish{SPACE}towel{SPACE}was{SPACE}by{SPACE}the{SPACE}sink{SPACE}{ESCAPE},11570,556692,33,1,48
SPIN,1020,1,"<?xml version=""1.0""?>\n<Clock xmlns:dt=""urn:schemas-microsoft-com:datatypes""><Description dt:dt=""string"">E-Prime Primary Realtime Clock</Description><StartTime><Timestamp dt:dt=""int"">0</Timestamp><DateUtc dt:dt=""string"">2017-07-17T19:03:39Z</DateUtc></StartTime><FrequencyChanges><FrequencyChange><Frequency dt:dt=""r8"">2923085</Frequency><Timestamp dt:dt=""r8"">761216099753</Timestamp><Current dt:dt=""r8"">0</Current><DateUtc dt:dt=""string"">2017-07-17T19:03:39Z</DateUtc></FrequencyChange></FrequencyChanges></Clock>\n",59.944,1,1007441422,07-17-2017,14:03:39,7:03:39 PM,49,A180716_2T.wav,The NEW ROAD is on the MAP.   ,2Talker,TypeSPINProc,StimList,in{SPACE}a{SPACE}field{SPACE}{ESCAPE},5509,563059,16,1,49
SPIN,1020,1,"<?xml version=""1.0""?>\n<Clock xmlns:dt=""urn:schemas-microsoft-com:datatypes""><Description dt:dt=""string"">E-Prime Primary Realtime Clock</Description><StartTime><Timestamp dt:dt=""int"">0</Timestamp><DateUtc dt:dt=""string"">2017-07-17T19:03:39Z</DateUtc></StartTime><FrequencyChanges><FrequencyChange><Frequency dt:dt=""r8"">2923085</Frequency><Timestamp dt:dt=""r8"">761216099753</Timestamp><Current dt:dt=""r8"">0</Current><DateUtc dt:dt=""string"">2017-07-17T19:03:39Z</DateUtc></FrequencyChange></FrequencyChanges></Clock>\n",59.944,1,1007441422,07-17-2017,14:03:39,7:03:39 PM,50,A180713_2T.wav,The GIRL has a PICTURE BOOK.   ,2Talker,TypeSPINProc,StimList,the{SPACE}girl{SPACE}has{SPACE}a{SPACE}picture{SPACE}of{SPACE}{ESCAPE},9413,573203,13,1,50
SPIN,1020,1,"<?xml version=""1.0""?>\n<Clock xmlns:dt=""urn:schemas-microsoft-com:datatypes""><Description dt:dt=""string"">E-Prime Primary Realtime Clock</Description><StartTime><Timestamp dt:dt=""int"">0</Timestamp><DateUtc dt:dt=""string"">2017-07-17T19:03:39Z</DateUtc></StartTime><FrequencyChanges><FrequencyChange><Frequency dt:dt=""r8"">2923085</Frequency><Timestamp dt:dt=""r8"">761216099753</Timestamp><Current dt:dt=""r8"">0</Current><DateUtc dt:dt=""string"">2017-07-17T19:03:39Z</DateUtc></FrequencyChange></FrequencyChanges></Clock>\n",59.944,1,1007441422,07-17-2017,14:03:39,7:03:39 PM,51,A181008_SSN.wav,SOMEONE is CROSSING the ROAD.   ,SSN,TypeSPINProc,StimList,someone{SPACE}is{SPACE}crossing{SPACE}the{SPACE}road{SPACE}{ENTER}{ESCAPE},9424,583290,40,1,51
SPIN,1020,1,"<?xml version=""1.0""?>\n<Clock xmlns:dt=""urn:schemas-microsoft-com:datatypes""><Description dt:dt=""string"">E-Prime Primary Realtime Clock</Description><StartTime><Timestamp dt:dt=""int"">0</Timestamp><DateUtc dt:dt=""string"">2017-07-17T19:03:39Z</DateUtc></StartTime><FrequencyChanges><FrequencyChange><Frequency dt:dt=""r8"">2923085</Frequency><Timestamp dt:dt=""r8"">761216099753</Timestamp><Current dt:dt=""r8"">0</Current><DateUtc dt:dt=""string"">2017-07-17T19:03:39Z</DateUtc></FrequencyChange></FrequencyChanges></Clock>\n",59.944,1,1007441422,07-17-2017,14:03:39,7:03:39 PM,52,A181515_1T.wav,The TRAIN STOPS at the STATION.   ,1T,TypeSPINProc,StimList,the{SPACE}train{SPACE}stops{SPACE}at{SPACE}the{SPACE}station{ESCAPE},7874,592066,63,1,52
SPIN,1020,1,"<?xml version=""1.0""?>\n<Clock xmlns:dt=""urn:schemas-microsoft-com:datatypes""><Description dt:dt=""string"">E-Prime Primary Realtime Clock</Description><StartTime><Timestamp dt:dt=""int"">0</Timestamp><DateUtc dt:dt=""string"">2017-07-17T19:03:39Z</DateUtc></StartTime><FrequencyChanges><FrequencyChange><Frequency dt:dt=""r8"">2923085</Frequency><Timestamp dt:dt=""r8"">761216099753</Timestamp><Current dt:dt=""r8"">0</Current><DateUtc dt:dt=""string"">2017-07-17T19:03:39Z</DateUtc></FrequencyChange></FrequencyChanges></Clock>\n",59.944,1,1007441422,07-17-2017,14:03:39,7:03:39 PM,53,A180911_8T.wav,The BABY BROKE his CUP.   ,8Talker,TypeSPINProc,StimList,x{ESCAPE},5308,597825,27,1,53
SPIN,1020,1,"<?xml version=""1.0""?>\n<Clock xmlns:dt=""urn:schemas-microsoft-com:datatypes""><Description dt:dt=""string"">E-Prime Primary Realtime Clock</Description><StartTime><Timestamp dt:dt=""int"">0</Timestamp><DateUtc dt:dt=""string"">2017-07-17T19:03:39Z</DateUtc></StartTime><FrequencyChanges><FrequencyChange><Frequency dt:dt=""r8"">2923085</Frequency><Timestamp dt:dt=""r8"">761216099753</Timestamp><Current dt:dt=""r8"">0</Current><DateUtc dt:dt=""string"">2017-07-17T19:03:39Z</DateUtc></FrequencyChange></FrequencyChanges></Clock>\n",59.944,1,1007441422,07-17-2017,14:03:39,7:03:39 PM,54,A181002_SSN.wav,The JANITOR USED a BROOM.   ,SSN,TypeSPINProc,StimList,the{SPACE}janitor{SPACE}used{SPACE}a{SPACE}ruler{ESCAPE},7930,606753,34,1,54
SPIN,1020,1,"<?xml version=""1.0""?>\n<Clock xmlns:dt=""urn:schemas-microsoft-com:datatypes""><Description dt:dt=""string"">E-Prime Primary Realtime Clock</Description><StartTime><Timestamp dt:dt=""int"">0</Timestamp><DateUtc dt:dt=""string"">2017-07-17T19:03:39Z</DateUtc></StartTime><FrequencyChanges><FrequencyChange><Frequency dt:dt=""r8"">2923085</Frequency><Timestamp dt:dt=""r8"">761216099753</Timestamp><Current dt:dt=""r8"">0</Current><DateUtc dt:dt=""string"">2017-07-17T19:03:39Z</DateUtc></FrequencyChange></FrequencyChanges></Clock>\n",59.944,1,1007441422,07-17-2017,14:03:39,7:03:39 PM,55,A180903_8T.wav,THEY are CLIMBING the TREE.   ,8Talker,TypeSPINProc,StimList,x{ESCAPE},4846,612177,19,1,55
SPIN,1020,1,"<?xml version=""1.0""?>\n<Clock xmlns:dt=""urn:schemas-microsoft-com:datatypes""><Description dt:dt=""string"">E-Prime Primary Realtime Clock</Description><StartTime><Timestamp dt:dt=""int"">0</Timestamp><DateUtc dt:dt=""string"">2017-07-17T19:03:39Z</DateUtc></StartTime><FrequencyChanges><FrequencyChange><Frequency dt:dt=""r8"">2923085</Frequency><Timestamp dt:dt=""r8"">761216099753</Timestamp><Current dt:dt=""r8"">0</Current><DateUtc dt:dt=""string"">2017-07-17T19:03:39Z</DateUtc></FrequencyChange></FrequencyChanges></Clock>\n",59.944,1,1007441422,07-17-2017,14:03:39,7:03:39 PM,56,A181511_1T.wav,The TINY BABY was PRETTY.   ,1T,TypeSPINProc,StimList,the{SPACE}tiny{SPACE}baby{SPACE}was{SPACE}pretty{SPACE}{ESCAPE},6434,619320,59,1,56
SPIN,1020,1,"<?xml version=""1.0""?>\n<Clock xmlns:dt=""urn:schemas-microsoft-com:datatypes""><Description dt:dt=""string"">E-Prime Primary Realtime Clock</Description><StartTime><Timestamp dt:dt=""int"">0</Timestamp><DateUtc dt:dt=""string"">2017-07-17T19:03:39Z</DateUtc></StartTime><FrequencyChanges><FrequencyChange><Frequency dt:dt=""r8"">2923085</Frequency><Timestamp dt:dt=""r8"">761216099753</Timestamp><Current dt:dt=""r8"">0</Current><DateUtc dt:dt=""string"">2017-07-17T19:03:39Z</DateUtc></FrequencyChange></FrequencyChanges></Clock>\n",59.944,1,1007441422,07-17-2017,14:03:39,7:03:39 PM,57,A181006_SSN.wav,The KITCHEN CLOCK was WRONG.   ,SSN,TypeSPINProc,StimList,the{SPACE}kitchen{SPACE}clock{SPACE}was{SPACE}wrong{SPACE}{ESCAPE},7423,627416,38,1,57
SPIN,1020,1,"<?xml version=""1.0""?>\n<Clock xmlns:dt=""urn:schemas-microsoft-com:datatypes""><Description dt:dt=""string"">E-Prime Primary Realtime Clock</Description><StartTime><Timestamp dt:dt=""int"">0</Timestamp><DateUtc dt:dt=""string"">2017-07-17T19:03:39Z</DateUtc></StartTime><FrequencyChanges><FrequencyChange><Frequency dt:dt=""r8"">2923085</Frequency><Timestamp dt:dt=""r8"">761216099753</Timestamp><Current dt:dt=""r8"">0</Current><DateUtc dt:dt=""string"">2017-07-17T19:03:39Z</DateUtc></FrequencyChange></FrequencyChanges></Clock>\n",59.944,1,1007441422,07-17-2017,14:03:39,7:03:39 PM,58,A181009_SSN.wav,The MAILMAN BROUGHT a LETTER.   ,SSN,TypeSPINProc,StimList,the{SPACE}mailman{SPACE}found{SPACE}a{SPACE}letter{SPACE}{ESCAPE},8629,636679,41,1,58
SPIN,1020,1,"<?xml version=""1.0""?>\n<Clock xmlns:dt=""urn:schemas-microsoft-com:datatypes""><Description dt:dt=""string"">E-Prime Primary Realtime Clock</Description><StartTime><Timestamp dt:dt=""int"">0</Timestamp><DateUtc dt:dt=""string"">2017-07-17T19:03:39Z</DateUtc></StartTime><FrequencyChanges><FrequencyChange><Frequency dt:dt=""r8"">2923085</Frequency><Timestamp dt:dt=""r8"">761216099753</Timestamp><Current dt:dt=""r8"">0</Current><DateUtc dt:dt=""string"">2017-07-17T19:03:39Z</DateUtc></FrequencyChange></FrequencyChanges></Clock>\n",59.944,1,1007441422,07-17-2017,14:03:39,7:03:39 PM,59,A181004_SSN.wav,The GOOD BOY is HELPING.   ,SSN,TypeSPINProc,StimList,the{SPACE}good{SPACE}boy{SPACE}was{SPACE}helping{SPACE}{ESCAPE},7579,644855,36,1,59
SPIN,1020,1,"<?xml version=""1.0""?>\n<Clock xmlns:dt=""urn:schemas-microsoft-com:datatypes""><Description dt:dt=""string"">E-Prime Primary Realtime Clock</Description><StartTime><Timestamp dt:dt=""int"">0</Timestamp><DateUtc dt:dt=""string"">2017-07-17T19:03:39Z</DateUtc></StartTime><FrequencyChanges><FrequencyChange><Frequency dt:dt=""r8"">2923085</Frequency><Timestamp dt:dt=""r8"">761216099753</Timestamp><Current dt:dt=""r8"">0</Current><DateUtc dt:dt=""string"">2017-07-17T19:03:39Z</DateUtc></FrequencyChange></FrequencyChanges></Clock>\n",59.944,1,1007441422,07-17-2017,14:03:39,7:03:39 PM,60,A181506_1T.wav,The BOY HURRIED to SCHOOL.   ,1T,TypeSPINProc,StimList,the{SPACE}boy{SPACE}hurried{SPACE}to{SPACE}school{SPACE}{ESCAPE},7197,653014,54,1,60
SPIN,1020,1,"<?xml version=""1.0""?>\n<Clock xmlns:dt=""urn:schemas-microsoft-com:datatypes""><Description dt:dt=""string"">E-Prime Primary Realtime Clock</Description><StartTime><Timestamp dt:dt=""int"">0</Timestamp><DateUtc dt:dt=""string"">2017-07-17T19:03:39Z</DateUtc></StartTime><FrequencyChanges><FrequencyChange><Frequency dt:dt=""r8"">2923085</Frequency><Timestamp dt:dt=""r8"">761216099753</Timestamp><Current dt:dt=""r8"">0</Current><DateUtc dt:dt=""string"">2017-07-17T19:03:39Z</DateUtc></FrequencyChange></FrequencyChanges></Clock>\n",59.944,1,1007441422,07-17-2017,14:03:39,7:03:39 PM,61,A181005_SSN.wav,THEY FOLLOWED the PATH.   ,SSN,TypeSPINProc,StimList,they{SPACE}followed{SPACE}the{SPACE}cat{SPACE}{ESCAPE},6498,660022,37,1,61
SPIN,1020,1,"<?xml version=""1.0""?>\n<Clock xmlns:dt=""urn:schemas-microsoft-com:datatypes""><Description dt:dt=""string"">E-Prime Primary Realtime Clock</Description><StartTime><Timestamp dt:dt=""int"">0</Timestamp><DateUtc dt:dt=""string"">2017-07-17T19:03:39Z</DateUtc></StartTime><FrequencyChanges><FrequencyChange><Frequency dt:dt=""r8"">2923085</Frequency><Timestamp dt:dt=""r8"">761216099753</Timestamp><Current dt:dt=""r8"">0</Current><DateUtc dt:dt=""string"">2017-07-17T19:03:39Z</DateUtc></FrequencyChange></FrequencyChanges></Clock>\n",59.944,1,1007441422,07-17-2017,14:03:39,7:03:39 PM,62,A180715_2T.wav,HE is HOLDING his NOSE.   ,2Talker,TypeSPINProc,StimList,yellow{ESCAPE},5023,665454,15,1,62
SPIN,1020,1,"<?xml version=""1.0""?>\n<Clock xmlns:dt=""urn:schemas-microsoft-com:datatypes""><Description dt:dt=""string"">E-Prime Primary Realtime Clock</Description><StartTime><Timestamp dt:dt=""int"">0</Timestamp><DateUtc dt:dt=""string"">2017-07-17T19:03:39Z</DateUtc></StartTime><FrequencyChanges><FrequencyChange><Frequency dt:dt=""r8"">2923085</Frequency><Timestamp dt:dt=""r8"">761216099753</Timestamp><Current dt:dt=""r8"">0</Current><DateUtc dt:dt=""string"">2017-07-17T19:03:39Z</DateUtc></FrequencyChange></FrequencyChanges></Clock>\n",59.944,1,1007441422,07-17-2017,14:03:39,7:03:39 PM,63,A181512_1T.wav,The DAUGHTER SET the TABLE.   ,1T,TypeSPINProc,StimList,the{SPACE}daughter{SPACE}set{SPACE}the{SPACE}table{SPACE}{ESCAPE},8504,674373,60,1,63
SPIN,1020,1,"<?xml version=""1.0""?>\n<Clock xmlns:dt=""urn:schemas-microsoft-com:datatypes""><Description dt:dt=""string"">E-Prime Primary Realtime Clock</Description><StartTime><Timestamp dt:dt=""int"">0</Timestamp><DateUtc dt:dt=""string"">2017-07-17T19:03:39Z</DateUtc></StartTime><FrequencyChanges><FrequencyChange><Frequency dt:dt=""r8"">2923085</Frequency><Timestamp dt:dt=""r8"">761216099753</Timestamp><Current dt:dt=""r8"">0</Current><DateUtc dt:dt=""string"">2017-07-17T19:03:39Z</DateUtc></FrequencyChange></FrequencyChanges></Clock>\n",59.944,1,1007441422,07-17-2017,14:03:39,7:03:39 PM,64,A181010_SSN.wav,THEY are RIDING their BICYCLES.   ,SSN,TypeSPINProc,StimList,they{SPACE}are{SPACE}riding{SPACE}thier{SPACE}bicycles{SPACE}{ENTER}{ESCAPE},8686,683597,42,1,64