ExperimentName,Subject,Session,Clock.Information,Display.RefreshRate,Group,RandomSeed,SessionDate,SessionTime,SessionTimeUtc,Block,Filename,FileText,Noise,Procedure,Running,Slide1.RESP,Slide1.RT,Slide1.RTTime,StimList,StimList.Cycle,StimList.Sample
SPIN,1007,1,"<?xml version=""1.0""?>\n<Clock xmlns:dt=""urn:schemas-microsoft-com:datatypes""><Description dt:dt=""string"">E-Prime Primary Realtime Clock</Description><StartTime><Timestamp dt:dt=""int"">0</Timestamp><DateUtc dt:dt=""string"">2017-08-12T14:41:10Z</DateUtc></StartTime><FrequencyChanges><FrequencyChange><Frequency dt:dt=""r8"">2923105</Frequency><Timestamp dt:dt=""r8"">187726490858</Timestamp><Current dt:dt=""r8"">0</Current><DateUtc dt:dt=""string"">2017-08-12T14:41:10Z</DateUtc></FrequencyChange></FrequencyChanges></Clock>\n",60.005,1,-1251497764,08-12-2017,09:41:10,2:41:10 PM,1,A181002_SSN.wav,The JANITOR USED a BROOM.   ,SSN,TypeSPINProc,StimList,the{SPACE}janitor{SPACE}used{SPACE}febreez{INSERT}{INSERT}e{ESCAPE},15137,941133,34,1,1
SPIN,1007,1,"<?xml version=""1.0""?>\n<Clock xmlns:dt=""urn:schemas-microsoft-com:datatypes""><Description dt:dt=""string"">E-Prime Primary Realtime Clock</Description><StartTime><Timestamp dt:dt=""int"">0</Timestamp><DateUtc dt:dt=""string"">2017-08-12T14:41:10Z</DateUtc></StartTime><FrequencyChanges><FrequencyChange><Frequency dt:dt=""r8"">2923105</Frequency><Timestamp dt:dt=""r8"">187726490858</Timestamp><Current dt:dt=""r8"">0</Current><DateUtc dt:dt=""string"">2017-08-12T14:41:10Z</DateUtc></FrequencyChange></FrequencyChanges></Clock>\n",60.005,1,-1251497764,08-12-2017,09:41:10,2:41:10 PM,2,A181512_1T.wav,The DAUGHTER SET the TABLE.   ,1T,TypeSPINProc,StimList,he{SPACE}had{SPACE}apple{SPACE}pie{SPACE}rain{SPACE}falls{SPACE}from{ESCAPE},12075,955020,60,1,2
SPIN,1007,1,"<?xml version=""1.0""?>\n<Clock xmlns:dt=""urn:schemas-microsoft-com:datatypes""><Description dt:dt=""string"">E-Prime Primary Realtime Clock</Description><StartTime><Timestamp dt:dt=""int"">0</Timestamp><DateUtc dt:dt=""string"">2017-08-12T14:41:10Z</DateUtc></StartTime><FrequencyChanges><FrequencyChange><Frequency dt:dt=""r8"">2923105</Frequency><Timestamp dt:dt=""r8"">187726490858</Timestamp><Current dt:dt=""r8"">0</Current><DateUtc dt:dt=""string"">2017-08-12T14:41:10Z</DateUtc></FrequencyChange></FrequencyChanges></Clock>\n",60.005,1,-1251497764,08-12-2017,09:41:10,2:41:10 PM,3,A180709_2T.wav,The BUS LEFT EARLY.   ,2Talker,TypeSPINProc,StimList,{SHIFT}Monday{SPACE}is{SPACE}the{SPACE}first{SPACE}day{SPACE}of{SPACE}the{SPACE}week{ESCAPE},10337,966731,9,1,3
SPIN,1007,1,"<?xml version=""1.0""?>\n<Clock xmlns:dt=""urn:schemas-microsoft-com:datatypes""><Description dt:dt=""string"">E-Prime Primary Realtime Clock</Description><StartTime><Timestamp dt:dt=""int"">0</Timestamp><DateUtc dt:dt=""string"">2017-08-12T14:41:10Z</DateUtc></StartTime><FrequencyChanges><FrequencyChange><Frequency dt:dt=""r8"">2923105</Frequency><Timestamp dt:dt=""r8"">187726490858</Timestamp><Current dt:dt=""r8"">0</Current><DateUtc dt:dt=""string"">2017-08-12T14:41:10Z</DateUtc></FrequencyChange></FrequencyChanges></Clock>\n",60.005,1,-1251497764,08-12-2017,09:41:10,2:41:10 PM,4,A180910_8T.wav,THEY WENT on a VACATION.   ,SSN,TypeSPINProc,StimList,they{SPACE}went{SPACE}on{SPACE}vacation{ESCAPE},8674,977834,26,1,4
SPIN,1007,1,"<?xml version=""1.0""?>\n<Clock xmlns:dt=""urn:schemas-microsoft-com:datatypes""><Description dt:dt=""string"">E-Prime Primary Realtime Clock</Description><StartTime><Timestamp dt:dt=""int"">0</Timestamp><DateUtc dt:dt=""string"">2017-08-12T14:41:10Z</DateUtc></StartTime><FrequencyChanges><FrequencyChange><Frequency dt:dt=""r8"">2923105</Frequency><Timestamp dt:dt=""r8"">187726490858</Timestamp><Current dt:dt=""r8"">0</Current><DateUtc dt:dt=""string"">2017-08-12T14:41:10Z</DateUtc></FrequencyChange></FrequencyChanges></Clock>\n",60.005,1,-1251497764,08-12-2017,09:41:10,2:41:10 PM,5,A181509_1T.wav,THEY MET SOME FRIENDS.   ,1T,TypeSPINProc,StimList,his{SPACE}mother{SPACE}and{SPACE}father{ESCAPE},8237,986930,57,1,5
SPIN,1007,1,"<?xml version=""1.0""?>\n<Clock xmlns:dt=""urn:schemas-microsoft-com:datatypes""><Description dt:dt=""string"">E-Prime Primary Realtime Clock</Description><StartTime><Timestamp dt:dt=""int"">0</Timestamp><DateUtc dt:dt=""string"">2017-08-12T14:41:10Z</DateUtc></StartTime><FrequencyChanges><FrequencyChange><Frequency dt:dt=""r8"">2923105</Frequency><Timestamp dt:dt=""r8"">187726490858</Timestamp><Current dt:dt=""r8"">0</Current><DateUtc dt:dt=""string"">2017-08-12T14:41:10Z</DateUtc></FrequencyChange></FrequencyChanges></Clock>\n",60.005,1,-1251497764,08-12-2017,09:41:10,2:41:10 PM,6,A181009_SSN.wav,The MAILMAN BROUGHT a LETTER.   ,SSN,TypeSPINProc,StimList,the{SPACE}mailman{SPACE}brought{SPACE}a{SPACE}letter{ESCAPE},7873,995449,41,1,6
SPIN,1007,1,"<?xml version=""1.0""?>\n<Clock xmlns:dt=""urn:schemas-microsoft-com:datatypes""><Description dt:dt=""string"">E-Prime Primary Realtime Clock</Description><StartTime><Timestamp dt:dt=""int"">0</Timestamp><DateUtc dt:dt=""string"">2017-08-12T14:41:10Z</DateUtc></StartTime><FrequencyChanges><FrequencyChange><Frequency dt:dt=""r8"">2923105</Frequency><Timestamp dt:dt=""r8"">187726490858</Timestamp><Current dt:dt=""r8"">0</Current><DateUtc dt:dt=""string"">2017-08-12T14:41:10Z</DateUtc></FrequencyChange></FrequencyChanges></Clock>\n",60.005,1,-1251497764,08-12-2017,09:41:10,2:41:10 PM,7,A181015_SSN.wav,The BUCKETS HOLD WATER.   ,SSN,TypeSPINProc,StimList,buckets{SPACE}full{SPACE}of{SPACE}water{ESCAPE},7887,1004129,47,1,7
SPIN,1007,1,"<?xml version=""1.0""?>\n<Clock xmlns:dt=""urn:schemas-microsoft-com:datatypes""><Description dt:dt=""string"">E-Prime Primary Realtime Clock</Description><StartTime><Timestamp dt:dt=""int"">0</Timestamp><DateUtc dt:dt=""string"">2017-08-12T14:41:10Z</DateUtc></StartTime><FrequencyChanges><FrequencyChange><Frequency dt:dt=""r8"">2923105</Frequency><Timestamp dt:dt=""r8"">187726490858</Timestamp><Current dt:dt=""r8"">0</Current><DateUtc dt:dt=""string"">2017-08-12T14:41:10Z</DateUtc></FrequencyChange></FrequencyChanges></Clock>\n",60.005,1,-1251497764,08-12-2017,09:41:10,2:41:10 PM,8,A181004_SSN.wav,The GOOD BOY is HELPING.   ,SSN,TypeSPINProc,StimList,the{SPACE}good{SPACE}boy{ESCAPE},5231,1010272,36,1,8
SPIN,1007,1,"<?xml version=""1.0""?>\n<Clock xmlns:dt=""urn:schemas-microsoft-com:datatypes""><Description dt:dt=""string"">E-Prime Primary Realtime Clock</Description><StartTime><Timestamp dt:dt=""int"">0</Timestamp><DateUtc dt:dt=""string"">2017-08-12T14:41:10Z</DateUtc></StartTime><FrequencyChanges><FrequencyChange><Frequency dt:dt=""r8"">2923105</Frequency><Timestamp dt:dt=""r8"">187726490858</Timestamp><Current dt:dt=""r8"">0</Current><DateUtc dt:dt=""string"">2017-08-12T14:41:10Z</DateUtc></FrequencyChange></FrequencyChanges></Clock>\n",60.005,1,-1251497764,08-12-2017,09:41:10,2:41:10 PM,9,A181007_SSN.wav,The DOG JUMPED ON the CHAIR.   ,SSN,TypeSPINProc,StimList,the{SPACE}dog{SPACE}jumped{SPACE}on{SPACE}the{SPACE}chair{ESCAPE},7068,1017776,39,1,9
SPIN,1007,1,"<?xml version=""1.0""?>\n<Clock xmlns:dt=""urn:schemas-microsoft-com:datatypes""><Description dt:dt=""string"">E-Prime Primary Realtime Clock</Description><StartTime><Timestamp dt:dt=""int"">0</Timestamp><DateUtc dt:dt=""string"">2017-08-12T14:41:10Z</DateUtc></StartTime><FrequencyChanges><FrequencyChange><Frequency dt:dt=""r8"">2923105</Frequency><Timestamp dt:dt=""r8"">187726490858</Timestamp><Current dt:dt=""r8"">0</Current><DateUtc dt:dt=""string"">2017-08-12T14:41:10Z</DateUtc></FrequencyChange></FrequencyChanges></Clock>\n",60.005,1,-1251497764,08-12-2017,09:41:10,2:41:10 PM,10,A181516_1T.wav,The PUPPY PLAYS with a BALL.   ,1T,TypeSPINProc,StimList,the{SPACE}war{SPACE}plane{SPACE}dropped{SPACE}the{SPACE}bomb{SPACE}the{SPACE}color{ESCAPE},10458,1028615,64,1,10
SPIN,1007,1,"<?xml version=""1.0""?>\n<Clock xmlns:dt=""urn:schemas-microsoft-com:datatypes""><Description dt:dt=""string"">E-Prime Primary Realtime Clock</Description><StartTime><Timestamp dt:dt=""int"">0</Timestamp><DateUtc dt:dt=""string"">2017-08-12T14:41:10Z</DateUtc></StartTime><FrequencyChanges><FrequencyChange><Frequency dt:dt=""r8"">2923105</Frequency><Timestamp dt:dt=""r8"">187726490858</Timestamp><Current dt:dt=""r8"">0</Current><DateUtc dt:dt=""string"">2017-08-12T14:41:10Z</DateUtc></FrequencyChange></FrequencyChanges></Clock>\n",60.005,1,-1251497764,08-12-2017,09:41:10,2:41:10 PM,11,A181511_1T.wav,The TINY BABY was PRETTY.   ,1T,TypeSPINProc,StimList,the{SPACE}boy{SPACE}wore{SPACE}a{SPACE}watch{SPACE}on{SPACE}his{SPACE}wrist{ESCAPE},10497,1039687,59,1,11
SPIN,1007,1,"<?xml version=""1.0""?>\n<Clock xmlns:dt=""urn:schemas-microsoft-com:datatypes""><Description dt:dt=""string"">E-Prime Primary Realtime Clock</Description><StartTime><Timestamp dt:dt=""int"">0</Timestamp><DateUtc dt:dt=""string"">2017-08-12T14:41:10Z</DateUtc></StartTime><FrequencyChanges><FrequencyChange><Frequency dt:dt=""r8"">2923105</Frequency><Timestamp dt:dt=""r8"">187726490858</Timestamp><Current dt:dt=""r8"">0</Current><DateUtc dt:dt=""string"">2017-08-12T14:41:10Z</DateUtc></FrequencyChange></FrequencyChanges></Clock>\n",60.005,1,-1251497764,08-12-2017,09:41:10,2:41:10 PM,12,A180906_8T.wav,A LETTER FELL on the FLOOR.   ,SSN,TypeSPINProc,StimList,eight{ESCAPE},4451,1044590,22,1,12
SPIN,1007,1,"<?xml version=""1.0""?>\n<Clock xmlns:dt=""urn:schemas-microsoft-com:datatypes""><Description dt:dt=""string"">E-Prime Primary Realtime Clock</Description><StartTime><Timestamp dt:dt=""int"">0</Timestamp><DateUtc dt:dt=""string"">2017-08-12T14:41:10Z</DateUtc></StartTime><FrequencyChanges><FrequencyChange><Frequency dt:dt=""r8"">2923105</Frequency><Timestamp dt:dt=""r8"">187726490858</Timestamp><Current dt:dt=""r8"">0</Current><DateUtc dt:dt=""string"">2017-08-12T14:41:10Z</DateUtc></FrequencyChange></FrequencyChanges></Clock>\n",60.005,1,-1251497764,08-12-2017,09:41:10,2:41:10 PM,13,A181012_SSN.wav,The MILK was by the FRONT DOOR.   ,SSN,TypeSPINProc,StimList,the{SPACE}milk{SPACE}was{SPACE}by{SPACE}the{SPACE}front{SPACE}door{ESCAPE},8049,1053238,44,1,13
SPIN,1007,1,"<?xml version=""1.0""?>\n<Clock xmlns:dt=""urn:schemas-microsoft-com:datatypes""><Description dt:dt=""string"">E-Prime Primary Realtime Clock</Description><StartTime><Timestamp dt:dt=""int"">0</Timestamp><DateUtc dt:dt=""string"">2017-08-12T14:41:10Z</DateUtc></StartTime><FrequencyChanges><FrequencyChange><Frequency dt:dt=""r8"">2923105</Frequency><Timestamp dt:dt=""r8"">187726490858</Timestamp><Current dt:dt=""r8"">0</Current><DateUtc dt:dt=""string"">2017-08-12T14:41:10Z</DateUtc></FrequencyChange></FrequencyChanges></Clock>\n",60.005,1,-1251497764,08-12-2017,09:41:10,2:41:10 PM,14,A180715_2T.wav,HE is HOLDING his NOSE.   ,2Talker,TypeSPINProc,StimList,people{SPACE}wear{SPACE}scarves{SPACE}around{SPACE}their{SPACE}necks{ESCAPE},12257,1065845,15,1,14
SPIN,1007,1,"<?xml version=""1.0""?>\n<Clock xmlns:dt=""urn:schemas-microsoft-com:datatypes""><Description dt:dt=""string"">E-Prime Primary Realtime Clock</Description><StartTime><Timestamp dt:dt=""int"">0</Timestamp><DateUtc dt:dt=""string"">2017-08-12T14:41:10Z</DateUtc></StartTime><FrequencyChanges><FrequencyChange><Frequency dt:dt=""r8"">2923105</Frequency><Timestamp dt:dt=""r8"">187726490858</Timestamp><Current dt:dt=""r8"">0</Current><DateUtc dt:dt=""string"">2017-08-12T14:41:10Z</DateUtc></FrequencyChange></FrequencyChanges></Clock>\n",60.005,1,-1251497764,08-12-2017,09:41:10,2:41:10 PM,15,A181006_SSN.wav,The KITCHEN CLOCK was WRONG.   ,SSN,TypeSPINProc,StimList,the{SPACE}kitchen{SPACE}clock{SPACE}is{SPACE}wrong{ESCAPE},7136,1073340,38,1,15
SPIN,1007,1,"<?xml version=""1.0""?>\n<Clock xmlns:dt=""urn:schemas-microsoft-com:datatypes""><Description dt:dt=""string"">E-Prime Primary Realtime Clock</Description><StartTime><Timestamp dt:dt=""int"">0</Timestamp><DateUtc dt:dt=""string"">2017-08-12T14:41:10Z</DateUtc></StartTime><FrequencyChanges><FrequencyChange><Frequency dt:dt=""r8"">2923105</Frequency><Timestamp dt:dt=""r8"">187726490858</Timestamp><Current dt:dt=""r8"">0</Current><DateUtc dt:dt=""string"">2017-08-12T14:41:10Z</DateUtc></FrequencyChange></FrequencyChanges></Clock>\n",60.005,1,-1251497764,08-12-2017,09:41:10,2:41:10 PM,16,A180908_8T.wav,HE LISTENED TO his FATHER.   ,SSN,TypeSPINProc,StimList,he{SPACE}listened{SPACE}to{SPACE}his{SPACE}father{SPACE}{ESCAPE},7286,1080956,24,1,16
SPIN,1007,1,"<?xml version=""1.0""?>\n<Clock xmlns:dt=""urn:schemas-microsoft-com:datatypes""><Description dt:dt=""string"">E-Prime Primary Realtime Clock</Description><StartTime><Timestamp dt:dt=""int"">0</Timestamp><DateUtc dt:dt=""string"">2017-08-12T14:41:10Z</DateUtc></StartTime><FrequencyChanges><FrequencyChange><Frequency dt:dt=""r8"">2923105</Frequency><Timestamp dt:dt=""r8"">187726490858</Timestamp><Current dt:dt=""r8"">0</Current><DateUtc dt:dt=""string"">2017-08-12T14:41:10Z</DateUtc></FrequencyChange></FrequencyChanges></Clock>\n",60.005,1,-1251497764,08-12-2017,09:41:10,2:41:10 PM,17,A180713_2T.wav,The GIRL has a PICTURE BOOK.   ,2Talker,TypeSPINProc,StimList,the{SPACE}war{SPACE}plane{SPACE}dropped{SPACE}a{SPACE}bomb{SPACE}{ESCAPE},10100,1091403,13,1,17
SPIN,1007,1,"<?xml version=""1.0""?>\n<Clock xmlns:dt=""urn:schemas-microsoft-com:datatypes""><Description dt:dt=""string"">E-Prime Primary Realtime Clock</Description><StartTime><Timestamp dt:dt=""int"">0</Timestamp><DateUtc dt:dt=""string"">2017-08-12T14:41:10Z</DateUtc></StartTime><FrequencyChanges><FrequencyChange><Frequency dt:dt=""r8"">2923105</Frequency><Timestamp dt:dt=""r8"">187726490858</Timestamp><Current dt:dt=""r8"">0</Current><DateUtc dt:dt=""string"">2017-08-12T14:41:10Z</DateUtc></FrequencyChange></FrequencyChanges></Clock>\n",60.005,1,-1251497764,08-12-2017,09:41:10,2:41:10 PM,18,A180913_8T.wav,The DINNER PLATE is HOT.   ,SSN,TypeSPINProc,StimList,the{SPACE}dinner{SPACE}plate{SPACE}is{SPACE}hot{ESCAPE},6010,1097979,29,1,18
SPIN,1007,1,"<?xml version=""1.0""?>\n<Clock xmlns:dt=""urn:schemas-microsoft-com:datatypes""><Description dt:dt=""string"">E-Prime Primary Realtime Clock</Description><StartTime><Timestamp dt:dt=""int"">0</Timestamp><DateUtc dt:dt=""string"">2017-08-12T14:41:10Z</DateUtc></StartTime><FrequencyChanges><FrequencyChange><Frequency dt:dt=""r8"">2923105</Frequency><Timestamp dt:dt=""r8"">187726490858</Timestamp><Current dt:dt=""r8"">0</Current><DateUtc dt:dt=""string"">2017-08-12T14:41:10Z</DateUtc></FrequencyChange></FrequencyChanges></Clock>\n",60.005,1,-1251497764,08-12-2017,09:41:10,2:41:10 PM,19,A180701_2T.wav,The CHILDREN DROPPED the BAG,2Talker,TypeSPINProc,StimList,the{SPACE}boy{SPACE}is{SPACE}helping{SPACE}his{SPACE}mother{SPACE}and{SPACE}father{SPACE}he{SPACE}made{ESCAPE},11245,1109530,1,1,19
SPIN,1007,1,"<?xml version=""1.0""?>\n<Clock xmlns:dt=""urn:schemas-microsoft-com:datatypes""><Description dt:dt=""string"">E-Prime Primary Realtime Clock</Description><StartTime><Timestamp dt:dt=""int"">0</Timestamp><DateUtc dt:dt=""string"">2017-08-12T14:41:10Z</DateUtc></StartTime><FrequencyChanges><FrequencyChange><Frequency dt:dt=""r8"">2923105</Frequency><Timestamp dt:dt=""r8"">187726490858</Timestamp><Current dt:dt=""r8"">0</Current><DateUtc dt:dt=""string"">2017-08-12T14:41:10Z</DateUtc></FrequencyChange></FrequencyChanges></Clock>\n",60.005,1,-1251497764,08-12-2017,09:41:10,2:41:10 PM,20,A180901_8T.wav,The BOOK TELLS a STORY.   ,8Talker,TypeSPINProc,StimList,story{ESCAPE},5333,1115434,17,1,20
SPIN,1007,1,"<?xml version=""1.0""?>\n<Clock xmlns:dt=""urn:schemas-microsoft-com:datatypes""><Description dt:dt=""string"">E-Prime Primary Realtime Clock</Description><StartTime><Timestamp dt:dt=""int"">0</Timestamp><DateUtc dt:dt=""string"">2017-08-12T14:41:10Z</DateUtc></StartTime><FrequencyChanges><FrequencyChange><Frequency dt:dt=""r8"">2923105</Frequency><Timestamp dt:dt=""r8"">187726490858</Timestamp><Current dt:dt=""r8"">0</Current><DateUtc dt:dt=""string"">2017-08-12T14:41:10Z</DateUtc></FrequencyChange></FrequencyChanges></Clock>\n",60.005,1,-1251497764,08-12-2017,09:41:10,2:41:10 PM,21,A180911_8T.wav,The BABY BROKE his CUP.   ,8Talker,TypeSPINProc,StimList,x{ESCAPE},3952,1120153,27,1,21
SPIN,1007,1,"<?xml version=""1.0""?>\n<Clock xmlns:dt=""urn:schemas-microsoft-com:datatypes""><Description dt:dt=""string"">E-Prime Primary Realtime Clock</Description><StartTime><Timestamp dt:dt=""int"">0</Timestamp><DateUtc dt:dt=""string"">2017-08-12T14:41:10Z</DateUtc></StartTime><FrequencyChanges><FrequencyChange><Frequency dt:dt=""r8"">2923105</Frequency><Timestamp dt:dt=""r8"">187726490858</Timestamp><Current dt:dt=""r8"">0</Current><DateUtc dt:dt=""string"">2017-08-12T14:41:10Z</DateUtc></FrequencyChange></FrequencyChanges></Clock>\n",60.005,1,-1251497764,08-12-2017,09:41:10,2:41:10 PM,22,A181504_1T.wav,The SHOP CLOSED for LUNCH.   ,1T,TypeSPINProc,StimList,he{SPACE}drank{SPACE}some{SPACE}orange{SPACE}juice{SPACE}we{SPACE}heard{SPACE}the{SPACE}tick{ESCAPE},11487,1132321,52,1,22
SPIN,1007,1,"<?xml version=""1.0""?>\n<Clock xmlns:dt=""urn:schemas-microsoft-com:datatypes""><Description dt:dt=""string"">E-Prime Primary Realtime Clock</Description><StartTime><Timestamp dt:dt=""int"">0</Timestamp><DateUtc dt:dt=""string"">2017-08-12T14:41:10Z</DateUtc></StartTime><FrequencyChanges><FrequencyChange><Frequency dt:dt=""r8"">2923105</Frequency><Timestamp dt:dt=""r8"">187726490858</Timestamp><Current dt:dt=""r8"">0</Current><DateUtc dt:dt=""string"">2017-08-12T14:41:10Z</DateUtc></FrequencyChange></FrequencyChanges></Clock>\n",60.005,1,-1251497764,08-12-2017,09:41:10,2:41:10 PM,23,A181502_1T.wav,The OVEN is TOO HOT.,1T,TypeSPINProc,StimList,monday{SPACE}is{SPACE}the{SPACE}first{SPACE}day{SPACE}of{SPACE}the{SPACE}week{ESCAPE},9247,1142080,50,1,23
SPIN,1007,1,"<?xml version=""1.0""?>\n<Clock xmlns:dt=""urn:schemas-microsoft-com:datatypes""><Description dt:dt=""string"">E-Prime Primary Realtime Clock</Description><StartTime><Timestamp dt:dt=""int"">0</Timestamp><DateUtc dt:dt=""string"">2017-08-12T14:41:10Z</DateUtc></StartTime><FrequencyChanges><FrequencyChange><Frequency dt:dt=""r8"">2923105</Frequency><Timestamp dt:dt=""r8"">187726490858</Timestamp><Current dt:dt=""r8"">0</Current><DateUtc dt:dt=""string"">2017-08-12T14:41:10Z</DateUtc></FrequencyChange></FrequencyChanges></Clock>\n",60.005,1,-1251497764,08-12-2017,09:41:10,2:41:10 PM,24,A180703_2T.wav,The FLOOR LOOKED CLEAN. ,2Talker,TypeSPINProc,StimList,he{SPACE}wore{SPACE}a{SPACE}hat{SPACE}on{SPACE}his{SPACE}head{ESCAPE},9749,1152631,3,1,24
SPIN,1007,1,"<?xml version=""1.0""?>\n<Clock xmlns:dt=""urn:schemas-microsoft-com:datatypes""><Description dt:dt=""string"">E-Prime Primary Realtime Clock</Description><StartTime><Timestamp dt:dt=""int"">0</Timestamp><DateUtc dt:dt=""string"">2017-08-12T14:41:10Z</DateUtc></StartTime><FrequencyChanges><FrequencyChange><Frequency dt:dt=""r8"">2923105</Frequency><Timestamp dt:dt=""r8"">187726490858</Timestamp><Current dt:dt=""r8"">0</Current><DateUtc dt:dt=""string"">2017-08-12T14:41:10Z</DateUtc></FrequencyChange></FrequencyChanges></Clock>\n",60.005,1,-1251497764,08-12-2017,09:41:10,2:41:10 PM,25,A180711_2T.wav,The BALL is BOUNCING very HIGH.   ,2Talker,TypeSPINProc,StimList,ticking{SPACE}of{SPACE}a{SPACE}clock{ESCAPE},11289,1164287,11,1,25
SPIN,1007,1,"<?xml version=""1.0""?>\n<Clock xmlns:dt=""urn:schemas-microsoft-com:datatypes""><Description dt:dt=""string"">E-Prime Primary Realtime Clock</Description><StartTime><Timestamp dt:dt=""int"">0</Timestamp><DateUtc dt:dt=""string"">2017-08-12T14:41:10Z</DateUtc></StartTime><FrequencyChanges><FrequencyChange><Frequency dt:dt=""r8"">2923105</Frequency><Timestamp dt:dt=""r8"">187726490858</Timestamp><Current dt:dt=""r8"">0</Current><DateUtc dt:dt=""string"">2017-08-12T14:41:10Z</DateUtc></FrequencyChange></FrequencyChanges></Clock>\n",60.005,1,-1251497764,08-12-2017,09:41:10,2:41:10 PM,26,A181507_1T.wav,Some NICE PEOPLE are COMING.   ,1T,TypeSPINProc,StimList,at{SPACE}breakfast{ESCAPE},8768,1173582,55,1,26
SPIN,1007,1,"<?xml version=""1.0""?>\n<Clock xmlns:dt=""urn:schemas-microsoft-com:datatypes""><Description dt:dt=""string"">E-Prime Primary Realtime Clock</Description><StartTime><Timestamp dt:dt=""int"">0</Timestamp><DateUtc dt:dt=""string"">2017-08-12T14:41:10Z</DateUtc></StartTime><FrequencyChanges><FrequencyChange><Frequency dt:dt=""r8"">2923105</Frequency><Timestamp dt:dt=""r8"">187726490858</Timestamp><Current dt:dt=""r8"">0</Current><DateUtc dt:dt=""string"">2017-08-12T14:41:10Z</DateUtc></FrequencyChange></FrequencyChanges></Clock>\n",60.005,1,-1251497764,08-12-2017,09:41:10,2:41:10 PM,27,A180706_2T.wav,MOTHER GOT a SAUCEPAN.,2Talker,TypeSPINProc,StimList,the{SPACE}color{SPACE}of{SPACE}a{SPACE}lemon{SPACE}is{SPACE}{ESCAPE},7312,1181342,6,1,27
SPIN,1007,1,"<?xml version=""1.0""?>\n<Clock xmlns:dt=""urn:schemas-microsoft-com:datatypes""><Description dt:dt=""string"">E-Prime Primary Realtime Clock</Description><StartTime><Timestamp dt:dt=""int"">0</Timestamp><DateUtc dt:dt=""string"">2017-08-12T14:41:10Z</DateUtc></StartTime><FrequencyChanges><FrequencyChange><Frequency dt:dt=""r8"">2923105</Frequency><Timestamp dt:dt=""r8"">187726490858</Timestamp><Current dt:dt=""r8"">0</Current><DateUtc dt:dt=""string"">2017-08-12T14:41:10Z</DateUtc></FrequencyChange></FrequencyChanges></Clock>\n",60.005,1,-1251497764,08-12-2017,09:41:10,2:41:10 PM,28,A181503_1T.wav,HE is SUCKING his THUMB.   ,1T,TypeSPINProc,StimList,five{SPACE}cents{SPACE}i{SPACE}wear{SPACE}my{SPACE}hat{SPACE}on{SPACE}my{SPACE}head{ESCAPE},15781,1197661,51,1,28
SPIN,1007,1,"<?xml version=""1.0""?>\n<Clock xmlns:dt=""urn:schemas-microsoft-com:datatypes""><Description dt:dt=""string"">E-Prime Primary Realtime Clock</Description><StartTime><Timestamp dt:dt=""int"">0</Timestamp><DateUtc dt:dt=""string"">2017-08-12T14:41:10Z</DateUtc></StartTime><FrequencyChanges><FrequencyChange><Frequency dt:dt=""r8"">2923105</Frequency><Timestamp dt:dt=""r8"">187726490858</Timestamp><Current dt:dt=""r8"">0</Current><DateUtc dt:dt=""string"">2017-08-12T14:41:10Z</DateUtc></FrequencyChange></FrequencyChanges></Clock>\n",60.005,1,-1251497764,08-12-2017,09:41:10,2:41:10 PM,29,A180914_8T.wav,The TRAIN is MOVING FAST.   ,SSN,TypeSPINProc,StimList,the{SPACE}train{SPACE}is{SPACE}moving{SPACE}fast{ESCAPE},7194,1205340,30,1,29
SPIN,1007,1,"<?xml version=""1.0""?>\n<Clock xmlns:dt=""urn:schemas-microsoft-com:datatypes""><Description dt:dt=""string"">E-Prime Primary Realtime Clock</Description><StartTime><Timestamp dt:dt=""int"">0</Timestamp><DateUtc dt:dt=""string"">2017-08-12T14:41:10Z</DateUtc></StartTime><FrequencyChanges><FrequencyChange><Frequency dt:dt=""r8"">2923105</Frequency><Timestamp dt:dt=""r8"">187726490858</Timestamp><Current dt:dt=""r8"">0</Current><DateUtc dt:dt=""string"">2017-08-12T14:41:10Z</DateUtc></FrequencyChange></FrequencyChanges></Clock>\n",60.005,1,-1251497764,08-12-2017,09:41:10,2:41:10 PM,30,A181010_SSN.wav,THEY are RIDING their BICYCLES.   ,SSN,TypeSPINProc,StimList,they{SPACE}are{SPACE}riding{SPACE}their{SPACE}bicycles{ESCAPE},9787,1215532,42,1,30
SPIN,1007,1,"<?xml version=""1.0""?>\n<Clock xmlns:dt=""urn:schemas-microsoft-com:datatypes""><Description dt:dt=""string"">E-Prime Primary Realtime Clock</Description><StartTime><Timestamp dt:dt=""int"">0</Timestamp><DateUtc dt:dt=""string"">2017-08-12T14:41:10Z</DateUtc></StartTime><FrequencyChanges><FrequencyChange><Frequency dt:dt=""r8"">2923105</Frequency><Timestamp dt:dt=""r8"">187726490858</Timestamp><Current dt:dt=""r8"">0</Current><DateUtc dt:dt=""string"">2017-08-12T14:41:10Z</DateUtc></FrequencyChange></FrequencyChanges></Clock>\n",60.005,1,-1251497764,08-12-2017,09:41:10,2:41:10 PM,31,A180712_2T.wav,FATHER FORGOT the BREAD.   ,2Talker,TypeSPINProc,StimList,the{SPACE}team{SPACE}was{SPACE}trained{SPACE}by{SPACE}their{SPACE}coach{ESCAPE},9048,1225043,12,1,31
SPIN,1007,1,"<?xml version=""1.0""?>\n<Clock xmlns:dt=""urn:schemas-microsoft-com:datatypes""><Description dt:dt=""string"">E-Prime Primary Realtime Clock</Description><StartTime><Timestamp dt:dt=""int"">0</Timestamp><DateUtc dt:dt=""string"">2017-08-12T14:41:10Z</DateUtc></StartTime><FrequencyChanges><FrequencyChange><Frequency dt:dt=""r8"">2923105</Frequency><Timestamp dt:dt=""r8"">187726490858</Timestamp><Current dt:dt=""r8"">0</Current><DateUtc dt:dt=""string"">2017-08-12T14:41:10Z</DateUtc></FrequencyChange></FrequencyChanges></Clock>\n",60.005,1,-1251497764,08-12-2017,09:41:10,2:41:10 PM,32,A181016_SSN.wav,The CHICKEN LAID some EGGS.   ,SSN,TypeSPINProc,StimList,the{SPACE}chicken{SPACE}laid{SPACE}some{SPACE}eggs{ESCAPE},6104,1231531,48,1,32
SPIN,1007,1,"<?xml version=""1.0""?>\n<Clock xmlns:dt=""urn:schemas-microsoft-com:datatypes""><Description dt:dt=""string"">E-Prime Primary Realtime Clock</Description><StartTime><Timestamp dt:dt=""int"">0</Timestamp><DateUtc dt:dt=""string"">2017-08-12T14:41:10Z</DateUtc></StartTime><FrequencyChanges><FrequencyChange><Frequency dt:dt=""r8"">2923105</Frequency><Timestamp dt:dt=""r8"">187726490858</Timestamp><Current dt:dt=""r8"">0</Current><DateUtc dt:dt=""string"">2017-08-12T14:41:10Z</DateUtc></FrequencyChange></FrequencyChanges></Clock>\n",60.005,1,-1251497764,08-12-2017,09:41:10,2:41:10 PM,33,A180716_2T.wav,The NEW ROAD is on the MAP.   ,2Talker,TypeSPINProc,StimList,gr{CAPSLOCK}{CAPSLOCK}aze{SPACE}in{SPACE}a{SPACE}field{ESCAPE},14520,1246514,16,1,33
SPIN,1007,1,"<?xml version=""1.0""?>\n<Clock xmlns:dt=""urn:schemas-microsoft-com:datatypes""><Description dt:dt=""string"">E-Prime Primary Realtime Clock</Description><StartTime><Timestamp dt:dt=""int"">0</Timestamp><DateUtc dt:dt=""string"">2017-08-12T14:41:10Z</DateUtc></StartTime><FrequencyChanges><FrequencyChange><Frequency dt:dt=""r8"">2923105</Frequency><Timestamp dt:dt=""r8"">187726490858</Timestamp><Current dt:dt=""r8"">0</Current><DateUtc dt:dt=""string"">2017-08-12T14:41:10Z</DateUtc></FrequencyChange></FrequencyChanges></Clock>\n",60.005,1,-1251497764,08-12-2017,09:41:10,2:41:10 PM,34,A180915_8T.wav,The CHILD DRANK some MILK.   ,SSN,TypeSPINProc,StimList,the{SPACE}child{SPACE}drank{SPACE}some{SPACE}milk{ESCAPE},7094,1254137,31,1,34
SPIN,1007,1,"<?xml version=""1.0""?>\n<Clock xmlns:dt=""urn:schemas-microsoft-com:datatypes""><Description dt:dt=""string"">E-Prime Primary Realtime Clock</Description><StartTime><Timestamp dt:dt=""int"">0</Timestamp><DateUtc dt:dt=""string"">2017-08-12T14:41:10Z</DateUtc></StartTime><FrequencyChanges><FrequencyChange><Frequency dt:dt=""r8"">2923105</Frequency><Timestamp dt:dt=""r8"">187726490858</Timestamp><Current dt:dt=""r8"">0</Current><DateUtc dt:dt=""string"">2017-08-12T14:41:10Z</DateUtc></FrequencyChange></FrequencyChanges></Clock>\n",60.005,1,-1251497764,08-12-2017,09:41:10,2:41:10 PM,35,A180710_2T.wav,THEY had TWO EMPTY BOTTLES.   ,2Talker,TypeSPINProc,StimList,i{SPACE}wore{SPACE}my{SPACE}hat{ESCAPE},7395,1262137,10,1,35
SPIN,1007,1,"<?xml version=""1.0""?>\n<Clock xmlns:dt=""urn:schemas-microsoft-com:datatypes""><Description dt:dt=""string"">E-Prime Primary Realtime Clock</Description><StartTime><Timestamp dt:dt=""int"">0</Timestamp><DateUtc dt:dt=""string"">2017-08-12T14:41:10Z</DateUtc></StartTime><FrequencyChanges><FrequencyChange><Frequency dt:dt=""r8"">2923105</Frequency><Timestamp dt:dt=""r8"">187726490858</Timestamp><Current dt:dt=""r8"">0</Current><DateUtc dt:dt=""string"">2017-08-12T14:41:10Z</DateUtc></FrequencyChange></FrequencyChanges></Clock>\n",60.005,1,-1251497764,08-12-2017,09:41:10,2:41:10 PM,36,A181515_1T.wav,The TRAIN STOPS at the STATION.   ,1T,TypeSPINProc,StimList,for{SPACE}dessert{SPACE}he{SPACE}had{SPACE}apple{SPACE}pie{SPACE}{ESCAPE},10302,1272944,63,1,36
SPIN,1007,1,"<?xml version=""1.0""?>\n<Clock xmlns:dt=""urn:schemas-microsoft-com:datatypes""><Description dt:dt=""string"">E-Prime Primary Realtime Clock</Description><StartTime><Timestamp dt:dt=""int"">0</Timestamp><DateUtc dt:dt=""string"">2017-08-12T14:41:10Z</DateUtc></StartTime><FrequencyChanges><FrequencyChange><Frequency dt:dt=""r8"">2923105</Frequency><Timestamp dt:dt=""r8"">187726490858</Timestamp><Current dt:dt=""r8"">0</Current><DateUtc dt:dt=""string"">2017-08-12T14:41:10Z</DateUtc></FrequencyChange></FrequencyChanges></Clock>\n",60.005,1,-1251497764,08-12-2017,09:41:10,2:41:10 PM,37,A180705_2T.wav,The FRUIT IS on the GROUND.   ,2Talker,TypeSPINProc,StimList,i{SPACE}love{SPACE}to{SPACE}start{SPACE}the{SPACE}day{SPACE}in{SPACE}the{SPACE}comfort{SPACE}of{SPACE}{ESCAPE},12527,1285751,5,1,37
SPIN,1007,1,"<?xml version=""1.0""?>\n<Clock xmlns:dt=""urn:schemas-microsoft-com:datatypes""><Description dt:dt=""string"">E-Prime Primary Realtime Clock</Description><StartTime><Timestamp dt:dt=""int"">0</Timestamp><DateUtc dt:dt=""string"">2017-08-12T14:41:10Z</DateUtc></StartTime><FrequencyChanges><FrequencyChange><Frequency dt:dt=""r8"">2923105</Frequency><Timestamp dt:dt=""r8"">187726490858</Timestamp><Current dt:dt=""r8"">0</Current><DateUtc dt:dt=""string"">2017-08-12T14:41:10Z</DateUtc></FrequencyChange></FrequencyChanges></Clock>\n",60.005,1,-1251497764,08-12-2017,09:41:10,2:41:10 PM,38,A180909_8T.wav,The DISHCLOTH is VERY WET.  ,8Talker,TypeSPINProc,StimList,he{SPACE}washed{SPACE}the{SPACE}dishes{ESCAPE},6636,1292943,25,1,38
SPIN,1007,1,"<?xml version=""1.0""?>\n<Clock xmlns:dt=""urn:schemas-microsoft-com:datatypes""><Description dt:dt=""string"">E-Prime Primary Realtime Clock</Description><StartTime><Timestamp dt:dt=""int"">0</Timestamp><DateUtc dt:dt=""string"">2017-08-12T14:41:10Z</DateUtc></StartTime><FrequencyChanges><FrequencyChange><Frequency dt:dt=""r8"">2923105</Frequency><Timestamp dt:dt=""r8"">187726490858</Timestamp><Current dt:dt=""r8"">0</Current><DateUtc dt:dt=""string"">2017-08-12T14:41:10Z</DateUtc></FrequencyChange></FrequencyChanges></Clock>\n",60.005,1,-1251497764,08-12-2017,09:41:10,2:41:10 PM,39,A180905_8T.wav,The TABLE has THREE LEGS.   ,SSN,TypeSPINProc,StimList,the{SPACE}table{SPACE}has{SPACE}three{SPACE}legs{ESCAPE},6412,1300102,21,1,39
SPIN,1007,1,"<?xml version=""1.0""?>\n<Clock xmlns:dt=""urn:schemas-microsoft-com:datatypes""><Description dt:dt=""string"">E-Prime Primary Realtime Clock</Description><StartTime><Timestamp dt:dt=""int"">0</Timestamp><DateUtc dt:dt=""string"">2017-08-12T14:41:10Z</DateUtc></StartTime><FrequencyChanges><FrequencyChange><Frequency dt:dt=""r8"">2923105</Frequency><Timestamp dt:dt=""r8"">187726490858</Timestamp><Current dt:dt=""r8"">0</Current><DateUtc dt:dt=""string"">2017-08-12T14:41:10Z</DateUtc></FrequencyChange></FrequencyChanges></Clock>\n",60.005,1,-1251497764,08-12-2017,09:41:10,2:41:10 PM,40,A180707_2T.wav,THEY WASHED in COLD WATER.   ,2Talker,TypeSPINProc,StimList,february{SPACE}has{SPACE}twenty{-}eight{SPACE}days{ESCAPE},10381,1310854,7,1,40
SPIN,1007,1,"<?xml version=""1.0""?>\n<Clock xmlns:dt=""urn:schemas-microsoft-com:datatypes""><Description dt:dt=""string"">E-Prime Primary Realtime Clock</Description><StartTime><Timestamp dt:dt=""int"">0</Timestamp><DateUtc dt:dt=""string"">2017-08-12T14:41:10Z</DateUtc></StartTime><FrequencyChanges><FrequencyChange><Frequency dt:dt=""r8"">2923105</Frequency><Timestamp dt:dt=""r8"">187726490858</Timestamp><Current dt:dt=""r8"">0</Current><DateUtc dt:dt=""string"">2017-08-12T14:41:10Z</DateUtc></FrequencyChange></FrequencyChanges></Clock>\n",60.005,1,-1251497764,08-12-2017,09:41:10,2:41:10 PM,41,A180903_8T.wav,THEY are CLIMBING the TREE.   ,8Talker,TypeSPINProc,StimList,rain{SPACE}climbing{ESCAPE},10614,1321853,19,1,41
SPIN,1007,1,"<?xml version=""1.0""?>\n<Clock xmlns:dt=""urn:schemas-microsoft-com:datatypes""><Description dt:dt=""string"">E-Prime Primary Realtime Clock</Description><StartTime><Timestamp dt:dt=""int"">0</Timestamp><DateUtc dt:dt=""string"">2017-08-12T14:41:10Z</DateUtc></StartTime><FrequencyChanges><FrequencyChange><Frequency dt:dt=""r8"">2923105</Frequency><Timestamp dt:dt=""r8"">187726490858</Timestamp><Current dt:dt=""r8"">0</Current><DateUtc dt:dt=""string"">2017-08-12T14:41:10Z</DateUtc></FrequencyChange></FrequencyChanges></Clock>\n",60.005,1,-1251497764,08-12-2017,09:41:10,2:41:10 PM,42,A181506_1T.wav,The BOY HURRIED to SCHOOL.   ,1T,TypeSPINProc,StimList,elephants{SPACE}are{SPACE}big{SPACE}animals{SPACE}for{SPACE}dessert{SPACE}he{ESCAPE},10341,1332612,54,1,42
SPIN,1007,1,"<?xml version=""1.0""?>\n<Clock xmlns:dt=""urn:schemas-microsoft-com:datatypes""><Description dt:dt=""string"">E-Prime Primary Realtime Clock</Description><StartTime><Timestamp dt:dt=""int"">0</Timestamp><DateUtc dt:dt=""string"">2017-08-12T14:41:10Z</DateUtc></StartTime><FrequencyChanges><FrequencyChange><Frequency dt:dt=""r8"">2923105</Frequency><Timestamp dt:dt=""r8"">187726490858</Timestamp><Current dt:dt=""r8"">0</Current><DateUtc dt:dt=""string"">2017-08-12T14:41:10Z</DateUtc></FrequencyChange></FrequencyChanges></Clock>\n",60.005,1,-1251497764,08-12-2017,09:41:10,2:41:10 PM,43,A181514_1T.wav,MOTHER TIED the STRING.   ,1T,TypeSPINProc,StimList,wear{SPACE}scarves{SPACE}around{SPACE}their{SPACE}necks{SPACE}my{SPACE}parents{ESCAPE},12135,1345355,62,1,43
SPIN,1007,1,"<?xml version=""1.0""?>\n<Clock xmlns:dt=""urn:schemas-microsoft-com:datatypes""><Description dt:dt=""string"">E-Prime Primary Realtime Clock</Description><StartTime><Timestamp dt:dt=""int"">0</Timestamp><DateUtc dt:dt=""string"">2017-08-12T14:41:10Z</DateUtc></StartTime><FrequencyChanges><FrequencyChange><Frequency dt:dt=""r8"">2923105</Frequency><Timestamp dt:dt=""r8"">187726490858</Timestamp><Current dt:dt=""r8"">0</Current><DateUtc dt:dt=""string"">2017-08-12T14:41:10Z</DateUtc></FrequencyChange></FrequencyChanges></Clock>\n",60.005,1,-1251497764,08-12-2017,09:41:10,2:41:10 PM,44,A180704_2T.wav,SHE FOUND her PURSE.,2Talker,TypeSPINProc,StimList,wear{SPACE}my{SPACE}hat{SPACE}on{SPACE}my{SPACE}head{SPACE}in{SPACE}spring{ESCAPE},10315,1356035,4,1,44
SPIN,1007,1,"<?xml version=""1.0""?>\n<Clock xmlns:dt=""urn:schemas-microsoft-com:datatypes""><Description dt:dt=""string"">E-Prime Primary Realtime Clock</Description><StartTime><Timestamp dt:dt=""int"">0</Timestamp><DateUtc dt:dt=""string"">2017-08-12T14:41:10Z</DateUtc></StartTime><FrequencyChanges><FrequencyChange><Frequency dt:dt=""r8"">2923105</Frequency><Timestamp dt:dt=""r8"">187726490858</Timestamp><Current dt:dt=""r8"">0</Current><DateUtc dt:dt=""string"">2017-08-12T14:41:10Z</DateUtc></FrequencyChange></FrequencyChanges></Clock>\n",60.005,1,-1251497764,08-12-2017,09:41:10,2:41:10 PM,45,A180714_2T.wav,The ORANGE was VERY SWEET.   ,2Talker,TypeSPINProc,StimList,people{SPACE}like{SPACE}to{SPACE}start{SPACE}their{SPACE}day{SPACE}with{SPACE}a{SPACE}cup{SPACE}of{SPACE}coffee{ESCAPE},16121,1372490,14,1,45
SPIN,1007,1,"<?xml version=""1.0""?>\n<Clock xmlns:dt=""urn:schemas-microsoft-com:datatypes""><Description dt:dt=""string"">E-Prime Primary Realtime Clock</Description><StartTime><Timestamp dt:dt=""int"">0</Timestamp><DateUtc dt:dt=""string"">2017-08-12T14:41:10Z</DateUtc></StartTime><FrequencyChanges><FrequencyChange><Frequency dt:dt=""r8"">2923105</Frequency><Timestamp dt:dt=""r8"">187726490858</Timestamp><Current dt:dt=""r8"">0</Current><DateUtc dt:dt=""string"">2017-08-12T14:41:10Z</DateUtc></FrequencyChange></FrequencyChanges></Clock>\n",60.005,1,-1251497764,08-12-2017,09:41:10,2:41:10 PM,46,A180907_8T.wav,The FIVE MEN are WORKING.    ,8Talker,TypeSPINProc,StimList,x{ESCAPE},3485,1376353,23,1,46
SPIN,1007,1,"<?xml version=""1.0""?>\n<Clock xmlns:dt=""urn:schemas-microsoft-com:datatypes""><Description dt:dt=""string"">E-Prime Primary Realtime Clock</Description><StartTime><Timestamp dt:dt=""int"">0</Timestamp><DateUtc dt:dt=""string"">2017-08-12T14:41:10Z</DateUtc></StartTime><FrequencyChanges><FrequencyChange><Frequency dt:dt=""r8"">2923105</Frequency><Timestamp dt:dt=""r8"">187726490858</Timestamp><Current dt:dt=""r8"">0</Current><DateUtc dt:dt=""string"">2017-08-12T14:41:10Z</DateUtc></FrequencyChange></FrequencyChanges></Clock>\n",60.005,1,-1251497764,08-12-2017,09:41:10,2:41:10 PM,47,A181001_SSN.wav,A DISH TOWEL is by the SINK.   ,SSN,TypeSPINProc,StimList,the{SPACE}dish{SPACE}towel{SPACE}is{SPACE}by{SPACE}the{SPACE}sink{ESCAPE},5812,1382897,33,1,47
SPIN,1007,1,"<?xml version=""1.0""?>\n<Clock xmlns:dt=""urn:schemas-microsoft-com:datatypes""><Description dt:dt=""string"">E-Prime Primary Realtime Clock</Description><StartTime><Timestamp dt:dt=""int"">0</Timestamp><DateUtc dt:dt=""string"">2017-08-12T14:41:10Z</DateUtc></StartTime><FrequencyChanges><FrequencyChange><Frequency dt:dt=""r8"">2923105</Frequency><Timestamp dt:dt=""r8"">187726490858</Timestamp><Current dt:dt=""r8"">0</Current><DateUtc dt:dt=""string"">2017-08-12T14:41:10Z</DateUtc></FrequencyChange></FrequencyChanges></Clock>\n",60.005,1,-1251497764,08-12-2017,09:41:10,2:41:10 PM,48,A181510_1T.wav,The RAINCOAT is HANGING UP.  ,1T,TypeSPINProc,StimList,bowl{SPACE}of{SPACE}green{SPACE}leaves{SPACE}monday{SPACE}is{SPACE}the{SPACE}{ESCAPE},13359,1396560,58,1,48
SPIN,1007,1,"<?xml version=""1.0""?>\n<Clock xmlns:dt=""urn:schemas-microsoft-com:datatypes""><Description dt:dt=""string"">E-Prime Primary Realtime Clock</Description><StartTime><Timestamp dt:dt=""int"">0</Timestamp><DateUtc dt:dt=""string"">2017-08-12T14:41:10Z</DateUtc></StartTime><FrequencyChanges><FrequencyChange><Frequency dt:dt=""r8"">2923105</Frequency><Timestamp dt:dt=""r8"">187726490858</Timestamp><Current dt:dt=""r8"">0</Current><DateUtc dt:dt=""string"">2017-08-12T14:41:10Z</DateUtc></FrequencyChange></FrequencyChanges></Clock>\n",60.005,1,-1251497764,08-12-2017,09:41:10,2:41:10 PM,49,A180916_8T.wav,The CAR HIT a WALL.   ,SSN,TypeSPINProc,StimList,the{SPACE}carpet{ESCAPE},5859,1402992,32,1,49
SPIN,1007,1,"<?xml version=""1.0""?>\n<Clock xmlns:dt=""urn:schemas-microsoft-com:datatypes""><Description dt:dt=""string"">E-Prime Primary Realtime Clock</Description><StartTime><Timestamp dt:dt=""int"">0</Timestamp><DateUtc dt:dt=""string"">2017-08-12T14:41:10Z</DateUtc></StartTime><FrequencyChanges><FrequencyChange><Frequency dt:dt=""r8"">2923105</Frequency><Timestamp dt:dt=""r8"">187726490858</Timestamp><Current dt:dt=""r8"">0</Current><DateUtc dt:dt=""string"">2017-08-12T14:41:10Z</DateUtc></FrequencyChange></FrequencyChanges></Clock>\n",60.005,1,-1251497764,08-12-2017,09:41:10,2:41:10 PM,50,A180912_8T.wav,The LADY PACKED her BAG.   ,SSN,TypeSPINProc,StimList,the{SPACE}lady{SPACE}packed{SPACE}a{SPACE}bag{ESCAPE},5720,1409303,28,1,50
SPIN,1007,1,"<?xml version=""1.0""?>\n<Clock xmlns:dt=""urn:schemas-microsoft-com:datatypes""><Description dt:dt=""string"">E-Prime Primary Realtime Clock</Description><StartTime><Timestamp dt:dt=""int"">0</Timestamp><DateUtc dt:dt=""string"">2017-08-12T14:41:10Z</DateUtc></StartTime><FrequencyChanges><FrequencyChange><Frequency dt:dt=""r8"">2923105</Frequency><Timestamp dt:dt=""r8"">187726490858</Timestamp><Current dt:dt=""r8"">0</Current><DateUtc dt:dt=""string"">2017-08-12T14:41:10Z</DateUtc></FrequencyChange></FrequencyChanges></Clock>\n",60.005,1,-1251497764,08-12-2017,09:41:10,2:41:10 PM,51,A181501_1T.wav,A MAN is TURNING the FAUCET.   ,1T,TypeSPINProc,StimList,birds{SPACE}build{SPACE}their{SPACE}nests{SPACE}in{SPACE}trees{ESCAPE},9779,1419495,49,1,51
SPIN,1007,1,"<?xml version=""1.0""?>\n<Clock xmlns:dt=""urn:schemas-microsoft-com:datatypes""><Description dt:dt=""string"">E-Prime Primary Realtime Clock</Description><StartTime><Timestamp dt:dt=""int"">0</Timestamp><DateUtc dt:dt=""string"">2017-08-12T14:41:10Z</DateUtc></StartTime><FrequencyChanges><FrequencyChange><Frequency dt:dt=""r8"">2923105</Frequency><Timestamp dt:dt=""r8"">187726490858</Timestamp><Current dt:dt=""r8"">0</Current><DateUtc dt:dt=""string"">2017-08-12T14:41:10Z</DateUtc></FrequencyChange></FrequencyChanges></Clock>\n",60.005,1,-1251497764,08-12-2017,09:41:10,2:41:10 PM,52,A181513_1T.wav,THEY WALKED ACROSS the GRASS.   ,1T,TypeSPINProc,StimList,butter{SPACE}is{SPACE}worth{SPACE}twenty{-}five{SPACE}cents{SPACE}i{SPACE}wear{SPACE}my{SPACE}hat{ESCAPE},13627,1433542,61,1,52
SPIN,1007,1,"<?xml version=""1.0""?>\n<Clock xmlns:dt=""urn:schemas-microsoft-com:datatypes""><Description dt:dt=""string"">E-Prime Primary Realtime Clock</Description><StartTime><Timestamp dt:dt=""int"">0</Timestamp><DateUtc dt:dt=""string"">2017-08-12T14:41:10Z</DateUtc></StartTime><FrequencyChanges><FrequencyChange><Frequency dt:dt=""r8"">2923105</Frequency><Timestamp dt:dt=""r8"">187726490858</Timestamp><Current dt:dt=""r8"">0</Current><DateUtc dt:dt=""string"">2017-08-12T14:41:10Z</DateUtc></FrequencyChange></FrequencyChanges></Clock>\n",60.005,1,-1251497764,08-12-2017,09:41:10,2:41:10 PM,53,A181505_1T.wav,The DRIVER STARTED the ENGINE.   ,1T,TypeSPINProc,StimList,people{SPACE}wear{SPACE}shoes{SPACE}on{SPACE}their{SPACE}feet{SPACE}a{SPACE}quarter{ESCAPE},13001,1447365,53,1,53
SPIN,1007,1,"<?xml version=""1.0""?>\n<Clock xmlns:dt=""urn:schemas-microsoft-com:datatypes""><Description dt:dt=""string"">E-Prime Primary Realtime Clock</Description><StartTime><Timestamp dt:dt=""int"">0</Timestamp><DateUtc dt:dt=""string"">2017-08-12T14:41:10Z</DateUtc></StartTime><FrequencyChanges><FrequencyChange><Frequency dt:dt=""r8"">2923105</Frequency><Timestamp dt:dt=""r8"">187726490858</Timestamp><Current dt:dt=""r8"">0</Current><DateUtc dt:dt=""string"">2017-08-12T14:41:10Z</DateUtc></FrequencyChange></FrequencyChanges></Clock>\n",60.005,1,-1251497764,08-12-2017,09:41:10,2:41:10 PM,54,A181014_SSN.wav,The GROUND was VERY HARD.   ,SSN,TypeSPINProc,StimList,the{SPACE}ground{SPACE}was{SPACE}very{SPACE}hard{ESCAPE},7135,1454948,46,1,54
SPIN,1007,1,"<?xml version=""1.0""?>\n<Clock xmlns:dt=""urn:schemas-microsoft-com:datatypes""><Description dt:dt=""string"">E-Prime Primary Realtime Clock</Description><StartTime><Timestamp dt:dt=""int"">0</Timestamp><DateUtc dt:dt=""string"">2017-08-12T14:41:10Z</DateUtc></StartTime><FrequencyChanges><FrequencyChange><Frequency dt:dt=""r8"">2923105</Frequency><Timestamp dt:dt=""r8"">187726490858</Timestamp><Current dt:dt=""r8"">0</Current><DateUtc dt:dt=""string"">2017-08-12T14:41:10Z</DateUtc></FrequencyChange></FrequencyChanges></Clock>\n",60.005,1,-1251497764,08-12-2017,09:41:10,2:41:10 PM,55,A181003_SSN.wav,THEY SAT on a WOODEN BENCH.   ,SSN,TypeSPINProc,StimList,they{SPACE}sat{SPACE}on{SPACE}a{SPACE}wooden{SPACE}bench{SPACE}{ESCAPE},6741,1462204,35,1,55
SPIN,1007,1,"<?xml version=""1.0""?>\n<Clock xmlns:dt=""urn:schemas-microsoft-com:datatypes""><Description dt:dt=""string"">E-Prime Primary Realtime Clock</Description><StartTime><Timestamp dt:dt=""int"">0</Timestamp><DateUtc dt:dt=""string"">2017-08-12T14:41:10Z</DateUtc></StartTime><FrequencyChanges><FrequencyChange><Frequency dt:dt=""r8"">2923105</Frequency><Timestamp dt:dt=""r8"">187726490858</Timestamp><Current dt:dt=""r8"">0</Current><DateUtc dt:dt=""string"">2017-08-12T14:41:10Z</DateUtc></FrequencyChange></FrequencyChanges></Clock>\n",60.005,1,-1251497764,08-12-2017,09:41:10,2:41:10 PM,56,A180708_2T.wav,The YOUNG PEOPLE are DANCING.,2Talker,TypeSPINProc,StimList,february{SPACE}has{SPACE}twenty{-}eight{SPACE}days{SPACE}less{ESCAPE},11888,1474467,8,1,56
SPIN,1007,1,"<?xml version=""1.0""?>\n<Clock xmlns:dt=""urn:schemas-microsoft-com:datatypes""><Description dt:dt=""string"">E-Prime Primary Realtime Clock</Description><StartTime><Timestamp dt:dt=""int"">0</Timestamp><DateUtc dt:dt=""string"">2017-08-12T14:41:10Z</DateUtc></StartTime><FrequencyChanges><FrequencyChange><Frequency dt:dt=""r8"">2923105</Frequency><Timestamp dt:dt=""r8"">187726490858</Timestamp><Current dt:dt=""r8"">0</Current><DateUtc dt:dt=""string"">2017-08-12T14:41:10Z</DateUtc></FrequencyChange></FrequencyChanges></Clock>\n",60.005,1,-1251497764,08-12-2017,09:41:10,2:41:10 PM,57,A181005_SSN.wav,THEY FOLLOWED the PATH.   ,SSN,TypeSPINProc,StimList,they{SPACE}followed{SPACE}the{SPACE}cat{ESCAPE},5629,1480491,37,1,57
SPIN,1007,1,"<?xml version=""1.0""?>\n<Clock xmlns:dt=""urn:schemas-microsoft-com:datatypes""><Description dt:dt=""string"">E-Prime Primary Realtime Clock</Description><StartTime><Timestamp dt:dt=""int"">0</Timestamp><DateUtc dt:dt=""string"">2017-08-12T14:41:10Z</DateUtc></StartTime><FrequencyChanges><FrequencyChange><Frequency dt:dt=""r8"">2923105</Frequency><Timestamp dt:dt=""r8"">187726490858</Timestamp><Current dt:dt=""r8"">0</Current><DateUtc dt:dt=""string"">2017-08-12T14:41:10Z</DateUtc></FrequencyChange></FrequencyChanges></Clock>\n",60.005,1,-1251497764,08-12-2017,09:41:10,2:41:10 PM,58,A181013_SSN.wav,The SHIRTS are HANGING in the CLOSET.   ,SSN,TypeSPINProc,StimList,the{SPACE}shirts{SPACE}are{SPACE}hanging{SPACE}in{SPACE}the{SPACE}closet{ESCAPE},6703,1487514,45,1,58
SPIN,1007,1,"<?xml version=""1.0""?>\n<Clock xmlns:dt=""urn:schemas-microsoft-com:datatypes""><Description dt:dt=""string"">E-Prime Primary Realtime Clock</Description><StartTime><Timestamp dt:dt=""int"">0</Timestamp><DateUtc dt:dt=""string"">2017-08-12T14:41:10Z</DateUtc></StartTime><FrequencyChanges><FrequencyChange><Frequency dt:dt=""r8"">2923105</Frequency><Timestamp dt:dt=""r8"">187726490858</Timestamp><Current dt:dt=""r8"">0</Current><DateUtc dt:dt=""string"">2017-08-12T14:41:10Z</DateUtc></FrequencyChange></FrequencyChanges></Clock>\n",60.005,1,-1251497764,08-12-2017,09:41:10,2:41:10 PM,59,A180902_8T.wav,The YOUNG BOY LEFT HOME.   ,8Talker,TypeSPINProc,StimList,young{SPACE}boy{SPACE}{ESCAPE},4498,1492442,18,1,59
SPIN,1007,1,"<?xml version=""1.0""?>\n<Clock xmlns:dt=""urn:schemas-microsoft-com:datatypes""><Description dt:dt=""string"">E-Prime Primary Realtime Clock</Description><StartTime><Timestamp dt:dt=""int"">0</Timestamp><DateUtc dt:dt=""string"">2017-08-12T14:41:10Z</DateUtc></StartTime><FrequencyChanges><FrequencyChange><Frequency dt:dt=""r8"">2923105</Frequency><Timestamp dt:dt=""r8"">187726490858</Timestamp><Current dt:dt=""r8"">0</Current><DateUtc dt:dt=""string"">2017-08-12T14:41:10Z</DateUtc></FrequencyChange></FrequencyChanges></Clock>\n",60.005,1,-1251497764,08-12-2017,09:41:10,2:41:10 PM,60,A180904_8T.wav,SHE STOOD near her WINDOW.   ,8Talker,TypeSPINProc,StimList,he{SPACE}stuck{SPACE}near{SPACE}me{ESCAPE},7463,1500290,20,1,60
SPIN,1007,1,"<?xml version=""1.0""?>\n<Clock xmlns:dt=""urn:schemas-microsoft-com:datatypes""><Description dt:dt=""string"">E-Prime Primary Realtime Clock</Description><StartTime><Timestamp dt:dt=""int"">0</Timestamp><DateUtc dt:dt=""string"">2017-08-12T14:41:10Z</DateUtc></StartTime><FrequencyChanges><FrequencyChange><Frequency dt:dt=""r8"">2923105</Frequency><Timestamp dt:dt=""r8"">187726490858</Timestamp><Current dt:dt=""r8"">0</Current><DateUtc dt:dt=""string"">2017-08-12T14:41:10Z</DateUtc></FrequencyChange></FrequencyChanges></Clock>\n",60.005,1,-1251497764,08-12-2017,09:41:10,2:41:10 PM,61,A181011_SSN.wav,HE BROKE his LEG.   ,SSN,TypeSPINProc,StimList,he{SPACE}broke{SPACE}the{SPACE}glass{ESCAPE},5536,1506313,43,1,61
SPIN,1007,1,"<?xml version=""1.0""?>\n<Clock xmlns:dt=""urn:schemas-microsoft-com:datatypes""><Description dt:dt=""string"">E-Prime Primary Realtime Clock</Description><StartTime><Timestamp dt:dt=""int"">0</Timestamp><DateUtc dt:dt=""string"">2017-08-12T14:41:10Z</DateUtc></StartTime><FrequencyChanges><FrequencyChange><Frequency dt:dt=""r8"">2923105</Frequency><Timestamp dt:dt=""r8"">187726490858</Timestamp><Current dt:dt=""r8"">0</Current><DateUtc dt:dt=""string"">2017-08-12T14:41:10Z</DateUtc></FrequencyChange></FrequencyChanges></Clock>\n",60.005,1,-1251497764,08-12-2017,09:41:10,2:41:10 PM,62,A181008_SSN.wav,SOMEONE is CROSSING the ROAD.   ,SSN,TypeSPINProc,StimList,someone{SPACE}is{SPACE}crossing{SPACE}the{SPACE}road{ESCAPE},8338,1515065,40,1,62
SPIN,1007,1,"<?xml version=""1.0""?>\n<Clock xmlns:dt=""urn:schemas-microsoft-com:datatypes""><Description dt:dt=""string"">E-Prime Primary Realtime Clock</Description><StartTime><Timestamp dt:dt=""int"">0</Timestamp><DateUtc dt:dt=""string"">2017-08-12T14:41:10Z</DateUtc></StartTime><FrequencyChanges><FrequencyChange><Frequency dt:dt=""r8"">2923105</Frequency><Timestamp dt:dt=""r8"">187726490858</Timestamp><Current dt:dt=""r8"">0</Current><DateUtc dt:dt=""string"">2017-08-12T14:41:10Z</DateUtc></FrequencyChange></FrequencyChanges></Clock>\n",60.005,1,-1251497764,08-12-2017,09:41:10,2:41:10 PM,63,A181508_1T.wav,SHE BUMPED her HEAD.   ,1T,TypeSPINProc,StimList,many{SPACE}people{SPACE}like{SPACE}to{SPACE}start{SPACE}their{SPACE}day{ESCAPE},8465,1523824,56,1,63
SPIN,1007,1,"<?xml version=""1.0""?>\n<Clock xmlns:dt=""urn:schemas-microsoft-com:datatypes""><Description dt:dt=""string"">E-Prime Primary Realtime Clock</Description><StartTime><Timestamp dt:dt=""int"">0</Timestamp><DateUtc dt:dt=""string"">2017-08-12T14:41:10Z</DateUtc></StartTime><FrequencyChanges><FrequencyChange><Frequency dt:dt=""r8"">2923105</Frequency><Timestamp dt:dt=""r8"">187726490858</Timestamp><Current dt:dt=""r8"">0</Current><DateUtc dt:dt=""string"">2017-08-12T14:41:10Z</DateUtc></FrequencyChange></FrequencyChanges></Clock>\n",60.005,1,-1251497764,08-12-2017,09:41:10,2:41:10 PM,64,A180702_2T.wav,The DOG CAME BACK.   ,2Talker,TypeSPINProc,StimList,last{SPACE}night{SPACE}i{SPACE}had{SPACE}roast{SPACE}beef{SPACE}for{SPACE}dinner{ESCAPE},10870,1535095,2,1,64