ExperimentName,Subject,Session,Clock.Information,Display.RefreshRate,Group,RandomSeed,SessionDate,SessionTime,SessionTimeUtc,Block,Filename,FileText,Noise,Procedure,Running,Slide1.RESP,Slide1.RT,Slide1.RTTime,StimList,StimList.Cycle,StimList.Sample
SPIN,1021,1,"<?xml version=""1.0""?>\n<Clock xmlns:dt=""urn:schemas-microsoft-com:datatypes""><Description dt:dt=""string"">E-Prime Primary Realtime Clock</Description><StartTime><Timestamp dt:dt=""int"">0</Timestamp><DateUtc dt:dt=""string"">2017-07-20T19:26:43Z</DateUtc></StartTime><FrequencyChanges><FrequencyChange><Frequency dt:dt=""r8"">2923085</Frequency><Timestamp dt:dt=""r8"">940409385</Timestamp><Current dt:dt=""r8"">0</Current><DateUtc dt:dt=""string"">2017-07-20T19:26:43Z</DateUtc></FrequencyChange></FrequencyChanges></Clock>\n",59.943,1,940986249,07-20-2017,14:26:43,7:26:43 PM,1,A181016_SSN.wav,The CHICKEN LAID some EGGS.   ,SSN,TypeSPINProc,StimList,the{SPACE}chicken{SPACE}laid{SPACE}some{SPACE}eggs{ESCAPE},9270,48919,48,1,1
SPIN,1021,1,"<?xml version=""1.0""?>\n<Clock xmlns:dt=""urn:schemas-microsoft-com:datatypes""><Description dt:dt=""string"">E-Prime Primary Realtime Clock</Description><StartTime><Timestamp dt:dt=""int"">0</Timestamp><DateUtc dt:dt=""string"">2017-07-20T19:26:43Z</DateUtc></StartTime><FrequencyChanges><FrequencyChange><Frequency dt:dt=""r8"">2923085</Frequency><Timestamp dt:dt=""r8"">940409385</Timestamp><Current dt:dt=""r8"">0</Current><DateUtc dt:dt=""string"">2017-07-20T19:26:43Z</DateUtc></FrequencyChange></FrequencyChanges></Clock>\n",59.943,1,940986249,07-20-2017,14:26:43,7:26:43 PM,2,A181507_1T.wav,Some NICE PEOPLE are COMING.   ,1T,TypeSPINProc,StimList,nice{SPACE}people{SPACE}are{SPACE}coming{ESCAPE},5869,56478,55,1,2
SPIN,1021,1,"<?xml version=""1.0""?>\n<Clock xmlns:dt=""urn:schemas-microsoft-com:datatypes""><Description dt:dt=""string"">E-Prime Primary Realtime Clock</Description><StartTime><Timestamp dt:dt=""int"">0</Timestamp><DateUtc dt:dt=""string"">2017-07-20T19:26:43Z</DateUtc></StartTime><FrequencyChanges><FrequencyChange><Frequency dt:dt=""r8"">2923085</Frequency><Timestamp dt:dt=""r8"">940409385</Timestamp><Current dt:dt=""r8"">0</Current><DateUtc dt:dt=""string"">2017-07-20T19:26:43Z</DateUtc></FrequencyChange></FrequencyChanges></Clock>\n",59.943,1,940986249,07-20-2017,14:26:43,7:26:43 PM,3,A181508_1T.wav,SHE BUMPED her HEAD.   ,1T,TypeSPINProc,StimList,she{SPACE}bumped{SPACE}her{SPACE}head{ESCAPE},4724,65910,56,1,3
SPIN,1021,1,"<?xml version=""1.0""?>\n<Clock xmlns:dt=""urn:schemas-microsoft-com:datatypes""><Description dt:dt=""string"">E-Prime Primary Realtime Clock</Description><StartTime><Timestamp dt:dt=""int"">0</Timestamp><DateUtc dt:dt=""string"">2017-07-20T19:26:43Z</DateUtc></StartTime><FrequencyChanges><FrequencyChange><Frequency dt:dt=""r8"">2923085</Frequency><Timestamp dt:dt=""r8"">940409385</Timestamp><Current dt:dt=""r8"">0</Current><DateUtc dt:dt=""string"">2017-07-20T19:26:43Z</DateUtc></FrequencyChange></FrequencyChanges></Clock>\n",59.943,1,940986249,07-20-2017,14:26:43,7:26:43 PM,4,A181504_1T.wav,The SHOP CLOSED for LUNCH.   ,1T,TypeSPINProc,StimList,the{SPACE}football{SPACE}hit{SPACE}the{SPACE}goal{LEFTARROW}{LEFTARROW}{LEFTARROW}{SPACE}{LEFTBRACKET}post{ESCAPE},12561,79469,52,1,4
SPIN,1021,1,"<?xml version=""1.0""?>\n<Clock xmlns:dt=""urn:schemas-microsoft-com:datatypes""><Description dt:dt=""string"">E-Prime Primary Realtime Clock</Description><StartTime><Timestamp dt:dt=""int"">0</Timestamp><DateUtc dt:dt=""string"">2017-07-20T19:26:43Z</DateUtc></StartTime><FrequencyChanges><FrequencyChange><Frequency dt:dt=""r8"">2923085</Frequency><Timestamp dt:dt=""r8"">940409385</Timestamp><Current dt:dt=""r8"">0</Current><DateUtc dt:dt=""string"">2017-07-20T19:26:43Z</DateUtc></FrequencyChange></FrequencyChanges></Clock>\n",59.943,1,940986249,07-20-2017,14:26:43,7:26:43 PM,5,A180901_8T.wav,The BOOK TELLS a STORY.   ,8Talker,TypeSPINProc,StimList,story{ESCAPE},4667,85405,17,1,5
SPIN,1021,1,"<?xml version=""1.0""?>\n<Clock xmlns:dt=""urn:schemas-microsoft-com:datatypes""><Description dt:dt=""string"">E-Prime Primary Realtime Clock</Description><StartTime><Timestamp dt:dt=""int"">0</Timestamp><DateUtc dt:dt=""string"">2017-07-20T19:26:43Z</DateUtc></StartTime><FrequencyChanges><FrequencyChange><Frequency dt:dt=""r8"">2923085</Frequency><Timestamp dt:dt=""r8"">940409385</Timestamp><Current dt:dt=""r8"">0</Current><DateUtc dt:dt=""string"">2017-07-20T19:26:43Z</DateUtc></FrequencyChange></FrequencyChanges></Clock>\n",59.943,1,940986249,07-20-2017,14:26:43,7:26:43 PM,6,A180712_2T.wav,FATHER FORGOT the BREAD.   ,2Talker,TypeSPINProc,StimList,father{SPACE}coach{ESCAPE},7128,94172,12,1,6
SPIN,1021,1,"<?xml version=""1.0""?>\n<Clock xmlns:dt=""urn:schemas-microsoft-com:datatypes""><Description dt:dt=""string"">E-Prime Primary Realtime Clock</Description><StartTime><Timestamp dt:dt=""int"">0</Timestamp><DateUtc dt:dt=""string"">2017-07-20T19:26:43Z</DateUtc></StartTime><FrequencyChanges><FrequencyChange><Frequency dt:dt=""r8"">2923085</Frequency><Timestamp dt:dt=""r8"">940409385</Timestamp><Current dt:dt=""r8"">0</Current><DateUtc dt:dt=""string"">2017-07-20T19:26:43Z</DateUtc></FrequencyChange></FrequencyChanges></Clock>\n",59.943,1,940986249,07-20-2017,14:26:43,7:26:43 PM,7,A181012_SSN.wav,The MILK was by the FRONT DOOR.   ,SSN,TypeSPINProc,StimList,the{SPACE}milk{SPACE}was{SPACE}by{SPACE}the{SPACE}front{SPACE}door{ESCAPE},6128,101396,44,1,7
SPIN,1021,1,"<?xml version=""1.0""?>\n<Clock xmlns:dt=""urn:schemas-microsoft-com:datatypes""><Description dt:dt=""string"">E-Prime Primary Realtime Clock</Description><StartTime><Timestamp dt:dt=""int"">0</Timestamp><DateUtc dt:dt=""string"">2017-07-20T19:26:43Z</DateUtc></StartTime><FrequencyChanges><FrequencyChange><Frequency dt:dt=""r8"">2923085</Frequency><Timestamp dt:dt=""r8"">940409385</Timestamp><Current dt:dt=""r8"">0</Current><DateUtc dt:dt=""string"">2017-07-20T19:26:43Z</DateUtc></FrequencyChange></FrequencyChanges></Clock>\n",59.943,1,940986249,07-20-2017,14:26:43,7:26:43 PM,8,A181511_1T.wav,The TINY BABY was PRETTY.   ,1T,TypeSPINProc,StimList,the{SPACE}tiny{SPACE}baby{SPACE}was{SPACE}pretty{ESCAPE},5271,108563,59,1,8
SPIN,1021,1,"<?xml version=""1.0""?>\n<Clock xmlns:dt=""urn:schemas-microsoft-com:datatypes""><Description dt:dt=""string"">E-Prime Primary Realtime Clock</Description><StartTime><Timestamp dt:dt=""int"">0</Timestamp><DateUtc dt:dt=""string"">2017-07-20T19:26:43Z</DateUtc></StartTime><FrequencyChanges><FrequencyChange><Frequency dt:dt=""r8"">2923085</Frequency><Timestamp dt:dt=""r8"">940409385</Timestamp><Current dt:dt=""r8"">0</Current><DateUtc dt:dt=""string"">2017-07-20T19:26:43Z</DateUtc></FrequencyChange></FrequencyChanges></Clock>\n",59.943,1,940986249,07-20-2017,14:26:43,7:26:43 PM,9,A181009_SSN.wav,The MAILMAN BROUGHT a LETTER.   ,SSN,TypeSPINProc,StimList,the{SPACE}mailman{SPACE}the{SPACE}letter{ESCAPE},7618,118467,41,1,9
SPIN,1021,1,"<?xml version=""1.0""?>\n<Clock xmlns:dt=""urn:schemas-microsoft-com:datatypes""><Description dt:dt=""string"">E-Prime Primary Realtime Clock</Description><StartTime><Timestamp dt:dt=""int"">0</Timestamp><DateUtc dt:dt=""string"">2017-07-20T19:26:43Z</DateUtc></StartTime><FrequencyChanges><FrequencyChange><Frequency dt:dt=""r8"">2923085</Frequency><Timestamp dt:dt=""r8"">940409385</Timestamp><Current dt:dt=""r8"">0</Current><DateUtc dt:dt=""string"">2017-07-20T19:26:43Z</DateUtc></FrequencyChange></FrequencyChanges></Clock>\n",59.943,1,940986249,07-20-2017,14:26:43,7:26:43 PM,10,A180710_2T.wav,THEY had TWO EMPTY BOTTLES.   ,2Talker,TypeSPINProc,StimList,they{SPACE}had{SPACE}two{SPACE}empty{SPACE}bottles{ESCAPE},6021,125562,10,1,10
SPIN,1021,1,"<?xml version=""1.0""?>\n<Clock xmlns:dt=""urn:schemas-microsoft-com:datatypes""><Description dt:dt=""string"">E-Prime Primary Realtime Clock</Description><StartTime><Timestamp dt:dt=""int"">0</Timestamp><DateUtc dt:dt=""string"">2017-07-20T19:26:43Z</DateUtc></StartTime><FrequencyChanges><FrequencyChange><Frequency dt:dt=""r8"">2923085</Frequency><Timestamp dt:dt=""r8"">940409385</Timestamp><Current dt:dt=""r8"">0</Current><DateUtc dt:dt=""string"">2017-07-20T19:26:43Z</DateUtc></FrequencyChange></FrequencyChanges></Clock>\n",59.943,1,940986249,07-20-2017,14:26:43,7:26:43 PM,11,A181014_SSN.wav,The GROUND was VERY HARD.   ,SSN,TypeSPINProc,StimList,the{SPACE}ground{SPACE}was{SPACE}very{SPACE}hard{ESCAPE},4809,131106,46,1,11
SPIN,1021,1,"<?xml version=""1.0""?>\n<Clock xmlns:dt=""urn:schemas-microsoft-com:datatypes""><Description dt:dt=""string"">E-Prime Primary Realtime Clock</Description><StartTime><Timestamp dt:dt=""int"">0</Timestamp><DateUtc dt:dt=""string"">2017-07-20T19:26:43Z</DateUtc></StartTime><FrequencyChanges><FrequencyChange><Frequency dt:dt=""r8"">2923085</Frequency><Timestamp dt:dt=""r8"">940409385</Timestamp><Current dt:dt=""r8"">0</Current><DateUtc dt:dt=""string"">2017-07-20T19:26:43Z</DateUtc></FrequencyChange></FrequencyChanges></Clock>\n",59.943,1,940986249,07-20-2017,14:26:43,7:26:43 PM,12,A181514_1T.wav,MOTHER TIED the STRING.   ,1T,TypeSPINProc,StimList,mother{SPACE}tied{SPACE}the{SPACE}string{ESCAPE},5118,136754,62,1,12
SPIN,1021,1,"<?xml version=""1.0""?>\n<Clock xmlns:dt=""urn:schemas-microsoft-com:datatypes""><Description dt:dt=""string"">E-Prime Primary Realtime Clock</Description><StartTime><Timestamp dt:dt=""int"">0</Timestamp><DateUtc dt:dt=""string"">2017-07-20T19:26:43Z</DateUtc></StartTime><FrequencyChanges><FrequencyChange><Frequency dt:dt=""r8"">2923085</Frequency><Timestamp dt:dt=""r8"">940409385</Timestamp><Current dt:dt=""r8"">0</Current><DateUtc dt:dt=""string"">2017-07-20T19:26:43Z</DateUtc></FrequencyChange></FrequencyChanges></Clock>\n",59.943,1,940986249,07-20-2017,14:26:43,7:26:43 PM,13,A181515_1T.wav,The TRAIN STOPS at the STATION.   ,1T,TypeSPINProc,StimList,the{SPACE}train{SPACE}stops{SPACE}at{SPACE}the{SPACE}station{ESCAPE},5694,142985,63,1,13
SPIN,1021,1,"<?xml version=""1.0""?>\n<Clock xmlns:dt=""urn:schemas-microsoft-com:datatypes""><Description dt:dt=""string"">E-Prime Primary Realtime Clock</Description><StartTime><Timestamp dt:dt=""int"">0</Timestamp><DateUtc dt:dt=""string"">2017-07-20T19:26:43Z</DateUtc></StartTime><FrequencyChanges><FrequencyChange><Frequency dt:dt=""r8"">2923085</Frequency><Timestamp dt:dt=""r8"">940409385</Timestamp><Current dt:dt=""r8"">0</Current><DateUtc dt:dt=""string"">2017-07-20T19:26:43Z</DateUtc></FrequencyChange></FrequencyChanges></Clock>\n",59.943,1,940986249,07-20-2017,14:26:43,7:26:43 PM,14,A180702_2T.wav,The DOG CAME BACK.   ,2Talker,TypeSPINProc,StimList,the{SPACE}dog{SPACE}came{ESCAPE},8259,152273,2,1,14
SPIN,1021,1,"<?xml version=""1.0""?>\n<Clock xmlns:dt=""urn:schemas-microsoft-com:datatypes""><Description dt:dt=""string"">E-Prime Primary Realtime Clock</Description><StartTime><Timestamp dt:dt=""int"">0</Timestamp><DateUtc dt:dt=""string"">2017-07-20T19:26:43Z</DateUtc></StartTime><FrequencyChanges><FrequencyChange><Frequency dt:dt=""r8"">2923085</Frequency><Timestamp dt:dt=""r8"">940409385</Timestamp><Current dt:dt=""r8"">0</Current><DateUtc dt:dt=""string"">2017-07-20T19:26:43Z</DateUtc></FrequencyChange></FrequencyChanges></Clock>\n",59.943,1,940986249,07-20-2017,14:26:43,7:26:43 PM,15,A180703_2T.wav,The FLOOR LOOKED CLEAN. ,2Talker,TypeSPINProc,StimList,floor{SPACE}looked{SPACE}clean{ESCAPE},5069,158392,3,1,15
SPIN,1021,1,"<?xml version=""1.0""?>\n<Clock xmlns:dt=""urn:schemas-microsoft-com:datatypes""><Description dt:dt=""string"">E-Prime Primary Realtime Clock</Description><StartTime><Timestamp dt:dt=""int"">0</Timestamp><DateUtc dt:dt=""string"">2017-07-20T19:26:43Z</DateUtc></StartTime><FrequencyChanges><FrequencyChange><Frequency dt:dt=""r8"">2923085</Frequency><Timestamp dt:dt=""r8"">940409385</Timestamp><Current dt:dt=""r8"">0</Current><DateUtc dt:dt=""string"">2017-07-20T19:26:43Z</DateUtc></FrequencyChange></FrequencyChanges></Clock>\n",59.943,1,940986249,07-20-2017,14:26:43,7:26:43 PM,16,A180715_2T.wav,HE is HOLDING his NOSE.   ,2Talker,TypeSPINProc,StimList,people{SPACE}wore{SPACE}scarves{SPACE}around{SPACE}their{SPACE}necks{ESCAPE},9246,168408,15,1,16
SPIN,1021,1,"<?xml version=""1.0""?>\n<Clock xmlns:dt=""urn:schemas-microsoft-com:datatypes""><Description dt:dt=""string"">E-Prime Primary Realtime Clock</Description><StartTime><Timestamp dt:dt=""int"">0</Timestamp><DateUtc dt:dt=""string"">2017-07-20T19:26:43Z</DateUtc></StartTime><FrequencyChanges><FrequencyChange><Frequency dt:dt=""r8"">2923085</Frequency><Timestamp dt:dt=""r8"">940409385</Timestamp><Current dt:dt=""r8"">0</Current><DateUtc dt:dt=""string"">2017-07-20T19:26:43Z</DateUtc></FrequencyChange></FrequencyChanges></Clock>\n",59.943,1,940986249,07-20-2017,14:26:43,7:26:43 PM,17,A181505_1T.wav,The DRIVER STARTED the ENGINE.   ,1T,TypeSPINProc,StimList,the{SPACE}driver{SPACE}started{SPACE}the{SPACE}engine{ESCAPE},5845,175183,53,1,17
SPIN,1021,1,"<?xml version=""1.0""?>\n<Clock xmlns:dt=""urn:schemas-microsoft-com:datatypes""><Description dt:dt=""string"">E-Prime Primary Realtime Clock</Description><StartTime><Timestamp dt:dt=""int"">0</Timestamp><DateUtc dt:dt=""string"">2017-07-20T19:26:43Z</DateUtc></StartTime><FrequencyChanges><FrequencyChange><Frequency dt:dt=""r8"">2923085</Frequency><Timestamp dt:dt=""r8"">940409385</Timestamp><Current dt:dt=""r8"">0</Current><DateUtc dt:dt=""string"">2017-07-20T19:26:43Z</DateUtc></FrequencyChange></FrequencyChanges></Clock>\n",59.943,1,940986249,07-20-2017,14:26:43,7:26:43 PM,18,A181513_1T.wav,THEY WALKED ACROSS the GRASS.   ,1T,TypeSPINProc,StimList,they{SPACE}walked{SPACE}across{SPACE}the{SPACE}grass{ESCAPE},5558,181335,61,1,18
SPIN,1021,1,"<?xml version=""1.0""?>\n<Clock xmlns:dt=""urn:schemas-microsoft-com:datatypes""><Description dt:dt=""string"">E-Prime Primary Realtime Clock</Description><StartTime><Timestamp dt:dt=""int"">0</Timestamp><DateUtc dt:dt=""string"">2017-07-20T19:26:43Z</DateUtc></StartTime><FrequencyChanges><FrequencyChange><Frequency dt:dt=""r8"">2923085</Frequency><Timestamp dt:dt=""r8"">940409385</Timestamp><Current dt:dt=""r8"">0</Current><DateUtc dt:dt=""string"">2017-07-20T19:26:43Z</DateUtc></FrequencyChange></FrequencyChanges></Clock>\n",59.943,1,940986249,07-20-2017,14:26:43,7:26:43 PM,19,A180912_8T.wav,The LADY PACKED her BAG.   ,SSN,TypeSPINProc,StimList,the{SPACE}lady{SPACE}packed{SPACE}a{SPACE}bag{ESCAPE},7785,190135,28,1,19
SPIN,1021,1,"<?xml version=""1.0""?>\n<Clock xmlns:dt=""urn:schemas-microsoft-com:datatypes""><Description dt:dt=""string"">E-Prime Primary Realtime Clock</Description><StartTime><Timestamp dt:dt=""int"">0</Timestamp><DateUtc dt:dt=""string"">2017-07-20T19:26:43Z</DateUtc></StartTime><FrequencyChanges><FrequencyChange><Frequency dt:dt=""r8"">2923085</Frequency><Timestamp dt:dt=""r8"">940409385</Timestamp><Current dt:dt=""r8"">0</Current><DateUtc dt:dt=""string"">2017-07-20T19:26:43Z</DateUtc></FrequencyChange></FrequencyChanges></Clock>\n",59.943,1,940986249,07-20-2017,14:26:43,7:26:43 PM,20,A181512_1T.wav,The DAUGHTER SET the TABLE.   ,1T,TypeSPINProc,StimList,the{SPACE}daughter{SPACE}set{SPACE}the{SPACE}table{ESCAPE},4703,195494,60,1,20
SPIN,1021,1,"<?xml version=""1.0""?>\n<Clock xmlns:dt=""urn:schemas-microsoft-com:datatypes""><Description dt:dt=""string"">E-Prime Primary Realtime Clock</Description><StartTime><Timestamp dt:dt=""int"">0</Timestamp><DateUtc dt:dt=""string"">2017-07-20T19:26:43Z</DateUtc></StartTime><FrequencyChanges><FrequencyChange><Frequency dt:dt=""r8"">2923085</Frequency><Timestamp dt:dt=""r8"">940409385</Timestamp><Current dt:dt=""r8"">0</Current><DateUtc dt:dt=""string"">2017-07-20T19:26:43Z</DateUtc></FrequencyChange></FrequencyChanges></Clock>\n",59.943,1,940986249,07-20-2017,14:26:43,7:26:43 PM,21,A181008_SSN.wav,SOMEONE is CROSSING the ROAD.   ,SSN,TypeSPINProc,StimList,someone{SPACE}is{SPACE}crossing{SPACE}the{SPACE}road{ESCAPE},5091,201254,40,1,21
SPIN,1021,1,"<?xml version=""1.0""?>\n<Clock xmlns:dt=""urn:schemas-microsoft-com:datatypes""><Description dt:dt=""string"">E-Prime Primary Realtime Clock</Description><StartTime><Timestamp dt:dt=""int"">0</Timestamp><DateUtc dt:dt=""string"">2017-07-20T19:26:43Z</DateUtc></StartTime><FrequencyChanges><FrequencyChange><Frequency dt:dt=""r8"">2923085</Frequency><Timestamp dt:dt=""r8"">940409385</Timestamp><Current dt:dt=""r8"">0</Current><DateUtc dt:dt=""string"">2017-07-20T19:26:43Z</DateUtc></FrequencyChange></FrequencyChanges></Clock>\n",59.943,1,940986249,07-20-2017,14:26:43,7:26:43 PM,22,A180916_8T.wav,The CAR HIT a WALL.   ,SSN,TypeSPINProc,StimList,the{SPACE}car{SPACE}hit{SPACE}a{SPACE}wall{ESCAPE},3808,205526,32,1,22
SPIN,1021,1,"<?xml version=""1.0""?>\n<Clock xmlns:dt=""urn:schemas-microsoft-com:datatypes""><Description dt:dt=""string"">E-Prime Primary Realtime Clock</Description><StartTime><Timestamp dt:dt=""int"">0</Timestamp><DateUtc dt:dt=""string"">2017-07-20T19:26:43Z</DateUtc></StartTime><FrequencyChanges><FrequencyChange><Frequency dt:dt=""r8"">2923085</Frequency><Timestamp dt:dt=""r8"">940409385</Timestamp><Current dt:dt=""r8"">0</Current><DateUtc dt:dt=""string"">2017-07-20T19:26:43Z</DateUtc></FrequencyChange></FrequencyChanges></Clock>\n",59.943,1,940986249,07-20-2017,14:26:43,7:26:43 PM,23,A181011_SSN.wav,HE BROKE his LEG.   ,SSN,TypeSPINProc,StimList,he{SPACE}broke{SPACE}his{SPACE}leg{ESCAPE},3629,209702,43,1,23
SPIN,1021,1,"<?xml version=""1.0""?>\n<Clock xmlns:dt=""urn:schemas-microsoft-com:datatypes""><Description dt:dt=""string"">E-Prime Primary Realtime Clock</Description><StartTime><Timestamp dt:dt=""int"">0</Timestamp><DateUtc dt:dt=""string"">2017-07-20T19:26:43Z</DateUtc></StartTime><FrequencyChanges><FrequencyChange><Frequency dt:dt=""r8"">2923085</Frequency><Timestamp dt:dt=""r8"">940409385</Timestamp><Current dt:dt=""r8"">0</Current><DateUtc dt:dt=""string"">2017-07-20T19:26:43Z</DateUtc></FrequencyChange></FrequencyChanges></Clock>\n",59.943,1,940986249,07-20-2017,14:26:43,7:26:43 PM,24,A180714_2T.wav,The ORANGE was VERY SWEET.   ,2Talker,TypeSPINProc,StimList,the{SPACE}orange{SPACE}was{SPACE}very{SPACE}sweet{ESCAPE},5073,215349,14,1,24
SPIN,1021,1,"<?xml version=""1.0""?>\n<Clock xmlns:dt=""urn:schemas-microsoft-com:datatypes""><Description dt:dt=""string"">E-Prime Primary Realtime Clock</Description><StartTime><Timestamp dt:dt=""int"">0</Timestamp><DateUtc dt:dt=""string"">2017-07-20T19:26:43Z</DateUtc></StartTime><FrequencyChanges><FrequencyChange><Frequency dt:dt=""r8"">2923085</Frequency><Timestamp dt:dt=""r8"">940409385</Timestamp><Current dt:dt=""r8"">0</Current><DateUtc dt:dt=""string"">2017-07-20T19:26:43Z</DateUtc></FrequencyChange></FrequencyChanges></Clock>\n",59.943,1,940986249,07-20-2017,14:26:43,7:26:43 PM,25,A180915_8T.wav,The CHILD DRANK some MILK.   ,SSN,TypeSPINProc,StimList,the{SPACE}child{SPACE}drinks{ESCAPE},5032,220797,31,1,25
SPIN,1021,1,"<?xml version=""1.0""?>\n<Clock xmlns:dt=""urn:schemas-microsoft-com:datatypes""><Description dt:dt=""string"">E-Prime Primary Realtime Clock</Description><StartTime><Timestamp dt:dt=""int"">0</Timestamp><DateUtc dt:dt=""string"">2017-07-20T19:26:43Z</DateUtc></StartTime><FrequencyChanges><FrequencyChange><Frequency dt:dt=""r8"">2923085</Frequency><Timestamp dt:dt=""r8"">940409385</Timestamp><Current dt:dt=""r8"">0</Current><DateUtc dt:dt=""string"">2017-07-20T19:26:43Z</DateUtc></FrequencyChange></FrequencyChanges></Clock>\n",59.943,1,940986249,07-20-2017,14:26:43,7:26:43 PM,26,A180914_8T.wav,The TRAIN is MOVING FAST.   ,SSN,TypeSPINProc,StimList,the{SPACE}train{'}s{SPACE}moving{SPACE}fast{ESCAPE},6557,227861,30,1,26
SPIN,1021,1,"<?xml version=""1.0""?>\n<Clock xmlns:dt=""urn:schemas-microsoft-com:datatypes""><Description dt:dt=""string"">E-Prime Primary Realtime Clock</Description><StartTime><Timestamp dt:dt=""int"">0</Timestamp><DateUtc dt:dt=""string"">2017-07-20T19:26:43Z</DateUtc></StartTime><FrequencyChanges><FrequencyChange><Frequency dt:dt=""r8"">2923085</Frequency><Timestamp dt:dt=""r8"">940409385</Timestamp><Current dt:dt=""r8"">0</Current><DateUtc dt:dt=""string"">2017-07-20T19:26:43Z</DateUtc></FrequencyChange></FrequencyChanges></Clock>\n",59.943,1,940986249,07-20-2017,14:26:43,7:26:43 PM,27,A180907_8T.wav,The FIVE MEN are WORKING.    ,8Talker,TypeSPINProc,StimList,x{ESCAPE},4974,234852,23,1,27
SPIN,1021,1,"<?xml version=""1.0""?>\n<Clock xmlns:dt=""urn:schemas-microsoft-com:datatypes""><Description dt:dt=""string"">E-Prime Primary Realtime Clock</Description><StartTime><Timestamp dt:dt=""int"">0</Timestamp><DateUtc dt:dt=""string"">2017-07-20T19:26:43Z</DateUtc></StartTime><FrequencyChanges><FrequencyChange><Frequency dt:dt=""r8"">2923085</Frequency><Timestamp dt:dt=""r8"">940409385</Timestamp><Current dt:dt=""r8"">0</Current><DateUtc dt:dt=""string"">2017-07-20T19:26:43Z</DateUtc></FrequencyChange></FrequencyChanges></Clock>\n",59.943,1,940986249,07-20-2017,14:26:43,7:26:43 PM,28,A180705_2T.wav,The FRUIT IS on the GROUND.   ,2Talker,TypeSPINProc,StimList,our{SPACE}fruit{SPACE}is{SPACE}on{SPACE}the{SPACE}ground{ESCAPE},4667,241452,5,1,28
SPIN,1021,1,"<?xml version=""1.0""?>\n<Clock xmlns:dt=""urn:schemas-microsoft-com:datatypes""><Description dt:dt=""string"">E-Prime Primary Realtime Clock</Description><StartTime><Timestamp dt:dt=""int"">0</Timestamp><DateUtc dt:dt=""string"">2017-07-20T19:26:43Z</DateUtc></StartTime><FrequencyChanges><FrequencyChange><Frequency dt:dt=""r8"">2923085</Frequency><Timestamp dt:dt=""r8"">940409385</Timestamp><Current dt:dt=""r8"">0</Current><DateUtc dt:dt=""string"">2017-07-20T19:26:43Z</DateUtc></FrequencyChange></FrequencyChanges></Clock>\n",59.943,1,940986249,07-20-2017,14:26:43,7:26:43 PM,29,A181006_SSN.wav,The KITCHEN CLOCK was WRONG.   ,SSN,TypeSPINProc,StimList,the{SPACE}kitchen{SPACE}clock{SPACE}was{SPACE}wrong{ESCAPE},6256,248579,38,1,29
SPIN,1021,1,"<?xml version=""1.0""?>\n<Clock xmlns:dt=""urn:schemas-microsoft-com:datatypes""><Description dt:dt=""string"">E-Prime Primary Realtime Clock</Description><StartTime><Timestamp dt:dt=""int"">0</Timestamp><DateUtc dt:dt=""string"">2017-07-20T19:26:43Z</DateUtc></StartTime><FrequencyChanges><FrequencyChange><Frequency dt:dt=""r8"">2923085</Frequency><Timestamp dt:dt=""r8"">940409385</Timestamp><Current dt:dt=""r8"">0</Current><DateUtc dt:dt=""string"">2017-07-20T19:26:43Z</DateUtc></FrequencyChange></FrequencyChanges></Clock>\n",59.943,1,940986249,07-20-2017,14:26:43,7:26:43 PM,30,A180711_2T.wav,The BALL is BOUNCING very HIGH.   ,2Talker,TypeSPINProc,StimList,the{SPACE}ball{SPACE}was{ESCAPE},6436,255683,11,1,30
SPIN,1021,1,"<?xml version=""1.0""?>\n<Clock xmlns:dt=""urn:schemas-microsoft-com:datatypes""><Description dt:dt=""string"">E-Prime Primary Realtime Clock</Description><StartTime><Timestamp dt:dt=""int"">0</Timestamp><DateUtc dt:dt=""string"">2017-07-20T19:26:43Z</DateUtc></StartTime><FrequencyChanges><FrequencyChange><Frequency dt:dt=""r8"">2923085</Frequency><Timestamp dt:dt=""r8"">940409385</Timestamp><Current dt:dt=""r8"">0</Current><DateUtc dt:dt=""string"">2017-07-20T19:26:43Z</DateUtc></FrequencyChange></FrequencyChanges></Clock>\n",59.943,1,940986249,07-20-2017,14:26:43,7:26:43 PM,31,A181509_1T.wav,THEY MET SOME FRIENDS.   ,1T,TypeSPINProc,StimList,they{SPACE}met{SPACE}some{SPACE}friends{ESCAPE},4132,260419,57,1,31
SPIN,1021,1,"<?xml version=""1.0""?>\n<Clock xmlns:dt=""urn:schemas-microsoft-com:datatypes""><Description dt:dt=""string"">E-Prime Primary Realtime Clock</Description><StartTime><Timestamp dt:dt=""int"">0</Timestamp><DateUtc dt:dt=""string"">2017-07-20T19:26:43Z</DateUtc></StartTime><FrequencyChanges><FrequencyChange><Frequency dt:dt=""r8"">2923085</Frequency><Timestamp dt:dt=""r8"">940409385</Timestamp><Current dt:dt=""r8"">0</Current><DateUtc dt:dt=""string"">2017-07-20T19:26:43Z</DateUtc></FrequencyChange></FrequencyChanges></Clock>\n",59.943,1,940986249,07-20-2017,14:26:43,7:26:43 PM,32,A181501_1T.wav,A MAN is TURNING the FAUCET.   ,1T,TypeSPINProc,StimList,a{SPACE}man{SPACE}is{SPACE}turning{SPACE}the{SPACE}faucet{ESCAPE},5525,266466,49,1,32
SPIN,1021,1,"<?xml version=""1.0""?>\n<Clock xmlns:dt=""urn:schemas-microsoft-com:datatypes""><Description dt:dt=""string"">E-Prime Primary Realtime Clock</Description><StartTime><Timestamp dt:dt=""int"">0</Timestamp><DateUtc dt:dt=""string"">2017-07-20T19:26:43Z</DateUtc></StartTime><FrequencyChanges><FrequencyChange><Frequency dt:dt=""r8"">2923085</Frequency><Timestamp dt:dt=""r8"">940409385</Timestamp><Current dt:dt=""r8"">0</Current><DateUtc dt:dt=""string"">2017-07-20T19:26:43Z</DateUtc></FrequencyChange></FrequencyChanges></Clock>\n",59.943,1,940986249,07-20-2017,14:26:43,7:26:43 PM,33,A180903_8T.wav,THEY are CLIMBING the TREE.   ,8Talker,TypeSPINProc,StimList,they{SPACE}are{SPACE}climbing{ESCAPE},4409,271506,19,1,33
SPIN,1021,1,"<?xml version=""1.0""?>\n<Clock xmlns:dt=""urn:schemas-microsoft-com:datatypes""><Description dt:dt=""string"">E-Prime Primary Realtime Clock</Description><StartTime><Timestamp dt:dt=""int"">0</Timestamp><DateUtc dt:dt=""string"">2017-07-20T19:26:43Z</DateUtc></StartTime><FrequencyChanges><FrequencyChange><Frequency dt:dt=""r8"">2923085</Frequency><Timestamp dt:dt=""r8"">940409385</Timestamp><Current dt:dt=""r8"">0</Current><DateUtc dt:dt=""string"">2017-07-20T19:26:43Z</DateUtc></FrequencyChange></FrequencyChanges></Clock>\n",59.943,1,940986249,07-20-2017,14:26:43,7:26:43 PM,34,A180701_2T.wav,The CHILDREN DROPPED the BAG,2Talker,TypeSPINProc,StimList,the{SPACE}children{SPACE}dropped{SPACE}the{SPACE}bag{ESCAPE},5478,277746,1,1,34
SPIN,1021,1,"<?xml version=""1.0""?>\n<Clock xmlns:dt=""urn:schemas-microsoft-com:datatypes""><Description dt:dt=""string"">E-Prime Primary Realtime Clock</Description><StartTime><Timestamp dt:dt=""int"">0</Timestamp><DateUtc dt:dt=""string"">2017-07-20T19:26:43Z</DateUtc></StartTime><FrequencyChanges><FrequencyChange><Frequency dt:dt=""r8"">2923085</Frequency><Timestamp dt:dt=""r8"">940409385</Timestamp><Current dt:dt=""r8"">0</Current><DateUtc dt:dt=""string"">2017-07-20T19:26:43Z</DateUtc></FrequencyChange></FrequencyChanges></Clock>\n",59.943,1,940986249,07-20-2017,14:26:43,7:26:43 PM,35,A181010_SSN.wav,THEY are RIDING their BICYCLES.   ,SSN,TypeSPINProc,StimList,they{SPACE}are{SPACE}riding{SPACE}their{SPACE}bicycles{ESCAPE},6124,284665,42,1,35
SPIN,1021,1,"<?xml version=""1.0""?>\n<Clock xmlns:dt=""urn:schemas-microsoft-com:datatypes""><Description dt:dt=""string"">E-Prime Primary Realtime Clock</Description><StartTime><Timestamp dt:dt=""int"">0</Timestamp><DateUtc dt:dt=""string"">2017-07-20T19:26:43Z</DateUtc></StartTime><FrequencyChanges><FrequencyChange><Frequency dt:dt=""r8"">2923085</Frequency><Timestamp dt:dt=""r8"">940409385</Timestamp><Current dt:dt=""r8"">0</Current><DateUtc dt:dt=""string"">2017-07-20T19:26:43Z</DateUtc></FrequencyChange></FrequencyChanges></Clock>\n",59.943,1,940986249,07-20-2017,14:26:43,7:26:43 PM,36,A180706_2T.wav,MOTHER GOT a SAUCEPAN.,2Talker,TypeSPINProc,StimList,mother{SPACE}got{SPACE}a{ESCAPE},4321,289385,6,1,36
SPIN,1021,1,"<?xml version=""1.0""?>\n<Clock xmlns:dt=""urn:schemas-microsoft-com:datatypes""><Description dt:dt=""string"">E-Prime Primary Realtime Clock</Description><StartTime><Timestamp dt:dt=""int"">0</Timestamp><DateUtc dt:dt=""string"">2017-07-20T19:26:43Z</DateUtc></StartTime><FrequencyChanges><FrequencyChange><Frequency dt:dt=""r8"">2923085</Frequency><Timestamp dt:dt=""r8"">940409385</Timestamp><Current dt:dt=""r8"">0</Current><DateUtc dt:dt=""string"">2017-07-20T19:26:43Z</DateUtc></FrequencyChange></FrequencyChanges></Clock>\n",59.943,1,940986249,07-20-2017,14:26:43,7:26:43 PM,37,A181007_SSN.wav,The DOG JUMPED ON the CHAIR.   ,SSN,TypeSPINProc,StimList,the{SPACE}dog{SPACE}jumped{SPACE}on{SPACE}the{SPACE}chair{ESCAPE},6531,296449,39,1,37
SPIN,1021,1,"<?xml version=""1.0""?>\n<Clock xmlns:dt=""urn:schemas-microsoft-com:datatypes""><Description dt:dt=""string"">E-Prime Primary Realtime Clock</Description><StartTime><Timestamp dt:dt=""int"">0</Timestamp><DateUtc dt:dt=""string"">2017-07-20T19:26:43Z</DateUtc></StartTime><FrequencyChanges><FrequencyChange><Frequency dt:dt=""r8"">2923085</Frequency><Timestamp dt:dt=""r8"">940409385</Timestamp><Current dt:dt=""r8"">0</Current><DateUtc dt:dt=""string"">2017-07-20T19:26:43Z</DateUtc></FrequencyChange></FrequencyChanges></Clock>\n",59.943,1,940986249,07-20-2017,14:26:43,7:26:43 PM,38,A181003_SSN.wav,THEY SAT on a WOODEN BENCH.   ,SSN,TypeSPINProc,StimList,sat{SPACE}on{SPACE}a{SPACE}wooden{SPACE}bench{ESCAPE},6042,302984,35,1,38
SPIN,1021,1,"<?xml version=""1.0""?>\n<Clock xmlns:dt=""urn:schemas-microsoft-com:datatypes""><Description dt:dt=""string"">E-Prime Primary Realtime Clock</Description><StartTime><Timestamp dt:dt=""int"">0</Timestamp><DateUtc dt:dt=""string"">2017-07-20T19:26:43Z</DateUtc></StartTime><FrequencyChanges><FrequencyChange><Frequency dt:dt=""r8"">2923085</Frequency><Timestamp dt:dt=""r8"">940409385</Timestamp><Current dt:dt=""r8"">0</Current><DateUtc dt:dt=""string"">2017-07-20T19:26:43Z</DateUtc></FrequencyChange></FrequencyChanges></Clock>\n",59.943,1,940986249,07-20-2017,14:26:43,7:26:43 PM,39,A181510_1T.wav,The RAINCOAT is HANGING UP.  ,1T,TypeSPINProc,StimList,the{SPACE}raincoat{SPACE}is{SPACE}hanging{SPACE}up{ESCAPE},6698,310296,58,1,39
SPIN,1021,1,"<?xml version=""1.0""?>\n<Clock xmlns:dt=""urn:schemas-microsoft-com:datatypes""><Description dt:dt=""string"">E-Prime Primary Realtime Clock</Description><StartTime><Timestamp dt:dt=""int"">0</Timestamp><DateUtc dt:dt=""string"">2017-07-20T19:26:43Z</DateUtc></StartTime><FrequencyChanges><FrequencyChange><Frequency dt:dt=""r8"">2923085</Frequency><Timestamp dt:dt=""r8"">940409385</Timestamp><Current dt:dt=""r8"">0</Current><DateUtc dt:dt=""string"">2017-07-20T19:26:43Z</DateUtc></FrequencyChange></FrequencyChanges></Clock>\n",59.943,1,940986249,07-20-2017,14:26:43,7:26:43 PM,40,A181502_1T.wav,The OVEN is TOO HOT.,1T,TypeSPINProc,StimList,the{SPACE}oven{SPACE}is{SPACE}too{SPACE}hot{ESCAPE},4033,314704,50,1,40
SPIN,1021,1,"<?xml version=""1.0""?>\n<Clock xmlns:dt=""urn:schemas-microsoft-com:datatypes""><Description dt:dt=""string"">E-Prime Primary Realtime Clock</Description><StartTime><Timestamp dt:dt=""int"">0</Timestamp><DateUtc dt:dt=""string"">2017-07-20T19:26:43Z</DateUtc></StartTime><FrequencyChanges><FrequencyChange><Frequency dt:dt=""r8"">2923085</Frequency><Timestamp dt:dt=""r8"">940409385</Timestamp><Current dt:dt=""r8"">0</Current><DateUtc dt:dt=""string"">2017-07-20T19:26:43Z</DateUtc></FrequencyChange></FrequencyChanges></Clock>\n",59.943,1,940986249,07-20-2017,14:26:43,7:26:43 PM,41,A181001_SSN.wav,A DISH TOWEL is by the SINK.   ,SSN,TypeSPINProc,StimList,the{SPACE}dish{SPACE}towel{SPACE}is{SPACE}by{SPACE}the{SPACE}sink{ESCAPE},7854,323079,33,1,41
SPIN,1021,1,"<?xml version=""1.0""?>\n<Clock xmlns:dt=""urn:schemas-microsoft-com:datatypes""><Description dt:dt=""string"">E-Prime Primary Realtime Clock</Description><StartTime><Timestamp dt:dt=""int"">0</Timestamp><DateUtc dt:dt=""string"">2017-07-20T19:26:43Z</DateUtc></StartTime><FrequencyChanges><FrequencyChange><Frequency dt:dt=""r8"">2923085</Frequency><Timestamp dt:dt=""r8"">940409385</Timestamp><Current dt:dt=""r8"">0</Current><DateUtc dt:dt=""string"">2017-07-20T19:26:43Z</DateUtc></FrequencyChange></FrequencyChanges></Clock>\n",59.943,1,940986249,07-20-2017,14:26:43,7:26:43 PM,42,A181013_SSN.wav,The SHIRTS are HANGING in the CLOSET.   ,SSN,TypeSPINProc,StimList,the{SPACE}shirts{SPACE}are{SPACE}hanging{SPACE}in{SPACE}the{SPACE}closet{ESCAPE},5896,330063,45,1,42
SPIN,1021,1,"<?xml version=""1.0""?>\n<Clock xmlns:dt=""urn:schemas-microsoft-com:datatypes""><Description dt:dt=""string"">E-Prime Primary Realtime Clock</Description><StartTime><Timestamp dt:dt=""int"">0</Timestamp><DateUtc dt:dt=""string"">2017-07-20T19:26:43Z</DateUtc></StartTime><FrequencyChanges><FrequencyChange><Frequency dt:dt=""r8"">2923085</Frequency><Timestamp dt:dt=""r8"">940409385</Timestamp><Current dt:dt=""r8"">0</Current><DateUtc dt:dt=""string"">2017-07-20T19:26:43Z</DateUtc></FrequencyChange></FrequencyChanges></Clock>\n",59.943,1,940986249,07-20-2017,14:26:43,7:26:43 PM,43,A180906_8T.wav,A LETTER FELL on the FLOOR.   ,SSN,TypeSPINProc,StimList,a{SPACE}letter{SPACE}fell{SPACE}on{ESCAPE},4793,335783,22,1,43
SPIN,1021,1,"<?xml version=""1.0""?>\n<Clock xmlns:dt=""urn:schemas-microsoft-com:datatypes""><Description dt:dt=""string"">E-Prime Primary Realtime Clock</Description><StartTime><Timestamp dt:dt=""int"">0</Timestamp><DateUtc dt:dt=""string"">2017-07-20T19:26:43Z</DateUtc></StartTime><FrequencyChanges><FrequencyChange><Frequency dt:dt=""r8"">2923085</Frequency><Timestamp dt:dt=""r8"">940409385</Timestamp><Current dt:dt=""r8"">0</Current><DateUtc dt:dt=""string"">2017-07-20T19:26:43Z</DateUtc></FrequencyChange></FrequencyChanges></Clock>\n",59.943,1,940986249,07-20-2017,14:26:43,7:26:43 PM,44,A180911_8T.wav,The BABY BROKE his CUP.   ,8Talker,TypeSPINProc,StimList,x{ESCAPE},4279,340758,27,1,44
SPIN,1021,1,"<?xml version=""1.0""?>\n<Clock xmlns:dt=""urn:schemas-microsoft-com:datatypes""><Description dt:dt=""string"">E-Prime Primary Realtime Clock</Description><StartTime><Timestamp dt:dt=""int"">0</Timestamp><DateUtc dt:dt=""string"">2017-07-20T19:26:43Z</DateUtc></StartTime><FrequencyChanges><FrequencyChange><Frequency dt:dt=""r8"">2923085</Frequency><Timestamp dt:dt=""r8"">940409385</Timestamp><Current dt:dt=""r8"">0</Current><DateUtc dt:dt=""string"">2017-07-20T19:26:43Z</DateUtc></FrequencyChange></FrequencyChanges></Clock>\n",59.943,1,940986249,07-20-2017,14:26:43,7:26:43 PM,45,A180905_8T.wav,The TABLE has THREE LEGS.   ,SSN,TypeSPINProc,StimList,the{SPACE}table{SPACE}has{SPACE}three{SPACE}legs{ESCAPE},4558,346342,21,1,45
SPIN,1021,1,"<?xml version=""1.0""?>\n<Clock xmlns:dt=""urn:schemas-microsoft-com:datatypes""><Description dt:dt=""string"">E-Prime Primary Realtime Clock</Description><StartTime><Timestamp dt:dt=""int"">0</Timestamp><DateUtc dt:dt=""string"">2017-07-20T19:26:43Z</DateUtc></StartTime><FrequencyChanges><FrequencyChange><Frequency dt:dt=""r8"">2923085</Frequency><Timestamp dt:dt=""r8"">940409385</Timestamp><Current dt:dt=""r8"">0</Current><DateUtc dt:dt=""string"">2017-07-20T19:26:43Z</DateUtc></FrequencyChange></FrequencyChanges></Clock>\n",59.943,1,940986249,07-20-2017,14:26:43,7:26:43 PM,46,A181506_1T.wav,The BOY HURRIED to SCHOOL.   ,1T,TypeSPINProc,StimList,the{SPACE}boy{SPACE}hurried{SPACE}to{SPACE}school{ESCAPE},4539,351278,54,1,46
SPIN,1021,1,"<?xml version=""1.0""?>\n<Clock xmlns:dt=""urn:schemas-microsoft-com:datatypes""><Description dt:dt=""string"">E-Prime Primary Realtime Clock</Description><StartTime><Timestamp dt:dt=""int"">0</Timestamp><DateUtc dt:dt=""string"">2017-07-20T19:26:43Z</DateUtc></StartTime><FrequencyChanges><FrequencyChange><Frequency dt:dt=""r8"">2923085</Frequency><Timestamp dt:dt=""r8"">940409385</Timestamp><Current dt:dt=""r8"">0</Current><DateUtc dt:dt=""string"">2017-07-20T19:26:43Z</DateUtc></FrequencyChange></FrequencyChanges></Clock>\n",59.943,1,940986249,07-20-2017,14:26:43,7:26:43 PM,47,A180709_2T.wav,The BUS LEFT EARLY.   ,2Talker,TypeSPINProc,StimList,the{SPACE}bus{SPACE}left{SPACE}early{ESCAPE},4031,356725,9,1,47
SPIN,1021,1,"<?xml version=""1.0""?>\n<Clock xmlns:dt=""urn:schemas-microsoft-com:datatypes""><Description dt:dt=""string"">E-Prime Primary Realtime Clock</Description><StartTime><Timestamp dt:dt=""int"">0</Timestamp><DateUtc dt:dt=""string"">2017-07-20T19:26:43Z</DateUtc></StartTime><FrequencyChanges><FrequencyChange><Frequency dt:dt=""r8"">2923085</Frequency><Timestamp dt:dt=""r8"">940409385</Timestamp><Current dt:dt=""r8"">0</Current><DateUtc dt:dt=""string"">2017-07-20T19:26:43Z</DateUtc></FrequencyChange></FrequencyChanges></Clock>\n",59.943,1,940986249,07-20-2017,14:26:43,7:26:43 PM,48,A180716_2T.wav,The NEW ROAD is on the MAP.   ,2Talker,TypeSPINProc,StimList,the{SPACE}new{SPACE}road{SPACE}field{ESCAPE},4552,361717,16,1,48
SPIN,1021,1,"<?xml version=""1.0""?>\n<Clock xmlns:dt=""urn:schemas-microsoft-com:datatypes""><Description dt:dt=""string"">E-Prime Primary Realtime Clock</Description><StartTime><Timestamp dt:dt=""int"">0</Timestamp><DateUtc dt:dt=""string"">2017-07-20T19:26:43Z</DateUtc></StartTime><FrequencyChanges><FrequencyChange><Frequency dt:dt=""r8"">2923085</Frequency><Timestamp dt:dt=""r8"">940409385</Timestamp><Current dt:dt=""r8"">0</Current><DateUtc dt:dt=""string"">2017-07-20T19:26:43Z</DateUtc></FrequencyChange></FrequencyChanges></Clock>\n",59.943,1,940986249,07-20-2017,14:26:43,7:26:43 PM,49,A180713_2T.wav,The GIRL has a PICTURE BOOK.   ,2Talker,TypeSPINProc,StimList,the{SPACE}girl{SPACE}has{SPACE}a{SPACE}picture{ESCAPE},5485,367805,13,1,49
SPIN,1021,1,"<?xml version=""1.0""?>\n<Clock xmlns:dt=""urn:schemas-microsoft-com:datatypes""><Description dt:dt=""string"">E-Prime Primary Realtime Clock</Description><StartTime><Timestamp dt:dt=""int"">0</Timestamp><DateUtc dt:dt=""string"">2017-07-20T19:26:43Z</DateUtc></StartTime><FrequencyChanges><FrequencyChange><Frequency dt:dt=""r8"">2923085</Frequency><Timestamp dt:dt=""r8"">940409385</Timestamp><Current dt:dt=""r8"">0</Current><DateUtc dt:dt=""string"">2017-07-20T19:26:43Z</DateUtc></FrequencyChange></FrequencyChanges></Clock>\n",59.943,1,940986249,07-20-2017,14:26:43,7:26:43 PM,50,A181005_SSN.wav,THEY FOLLOWED the PATH.   ,SSN,TypeSPINProc,StimList,they{SPACE}followed{SPACE}the{SPACE}path{ESCAPE},5445,373604,37,1,50
SPIN,1021,1,"<?xml version=""1.0""?>\n<Clock xmlns:dt=""urn:schemas-microsoft-com:datatypes""><Description dt:dt=""string"">E-Prime Primary Realtime Clock</Description><StartTime><Timestamp dt:dt=""int"">0</Timestamp><DateUtc dt:dt=""string"">2017-07-20T19:26:43Z</DateUtc></StartTime><FrequencyChanges><FrequencyChange><Frequency dt:dt=""r8"">2923085</Frequency><Timestamp dt:dt=""r8"">940409385</Timestamp><Current dt:dt=""r8"">0</Current><DateUtc dt:dt=""string"">2017-07-20T19:26:43Z</DateUtc></FrequencyChange></FrequencyChanges></Clock>\n",59.943,1,940986249,07-20-2017,14:26:43,7:26:43 PM,51,A181015_SSN.wav,The BUCKETS HOLD WATER.   ,SSN,TypeSPINProc,StimList,the{SPACE}bucket{'}s{SPACE}full{SPACE}of{SPACE}water{ESCAPE},6092,380140,47,1,51
SPIN,1021,1,"<?xml version=""1.0""?>\n<Clock xmlns:dt=""urn:schemas-microsoft-com:datatypes""><Description dt:dt=""string"">E-Prime Primary Realtime Clock</Description><StartTime><Timestamp dt:dt=""int"">0</Timestamp><DateUtc dt:dt=""string"">2017-07-20T19:26:43Z</DateUtc></StartTime><FrequencyChanges><FrequencyChange><Frequency dt:dt=""r8"">2923085</Frequency><Timestamp dt:dt=""r8"">940409385</Timestamp><Current dt:dt=""r8"">0</Current><DateUtc dt:dt=""string"">2017-07-20T19:26:43Z</DateUtc></FrequencyChange></FrequencyChanges></Clock>\n",59.943,1,940986249,07-20-2017,14:26:43,7:26:43 PM,52,A180908_8T.wav,HE LISTENED TO his FATHER.   ,SSN,TypeSPINProc,StimList,he{SPACE}listened{SPACE}to{SPACE}his{SPACE}mom{ESCAPE},4691,385628,24,1,52
SPIN,1021,1,"<?xml version=""1.0""?>\n<Clock xmlns:dt=""urn:schemas-microsoft-com:datatypes""><Description dt:dt=""string"">E-Prime Primary Realtime Clock</Description><StartTime><Timestamp dt:dt=""int"">0</Timestamp><DateUtc dt:dt=""string"">2017-07-20T19:26:43Z</DateUtc></StartTime><FrequencyChanges><FrequencyChange><Frequency dt:dt=""r8"">2923085</Frequency><Timestamp dt:dt=""r8"">940409385</Timestamp><Current dt:dt=""r8"">0</Current><DateUtc dt:dt=""string"">2017-07-20T19:26:43Z</DateUtc></FrequencyChange></FrequencyChanges></Clock>\n",59.943,1,940986249,07-20-2017,14:26:43,7:26:43 PM,53,A181516_1T.wav,The PUPPY PLAYS with a BALL.   ,1T,TypeSPINProc,StimList,the{SPACE}puppy{SPACE}plays{SPACE}with{SPACE}the{SPACE}ball{ESCAPE},6453,392395,64,1,53
SPIN,1021,1,"<?xml version=""1.0""?>\n<Clock xmlns:dt=""urn:schemas-microsoft-com:datatypes""><Description dt:dt=""string"">E-Prime Primary Realtime Clock</Description><StartTime><Timestamp dt:dt=""int"">0</Timestamp><DateUtc dt:dt=""string"">2017-07-20T19:26:43Z</DateUtc></StartTime><FrequencyChanges><FrequencyChange><Frequency dt:dt=""r8"">2923085</Frequency><Timestamp dt:dt=""r8"">940409385</Timestamp><Current dt:dt=""r8"">0</Current><DateUtc dt:dt=""string"">2017-07-20T19:26:43Z</DateUtc></FrequencyChange></FrequencyChanges></Clock>\n",59.943,1,940986249,07-20-2017,14:26:43,7:26:43 PM,54,A180910_8T.wav,THEY WENT on a VACATION.   ,SSN,TypeSPINProc,StimList,they{SPACE}went{SPACE}on{SPACE}vacation{ESCAPE},4099,397315,26,1,54
SPIN,1021,1,"<?xml version=""1.0""?>\n<Clock xmlns:dt=""urn:schemas-microsoft-com:datatypes""><Description dt:dt=""string"">E-Prime Primary Realtime Clock</Description><StartTime><Timestamp dt:dt=""int"">0</Timestamp><DateUtc dt:dt=""string"">2017-07-20T19:26:43Z</DateUtc></StartTime><FrequencyChanges><FrequencyChange><Frequency dt:dt=""r8"">2923085</Frequency><Timestamp dt:dt=""r8"">940409385</Timestamp><Current dt:dt=""r8"">0</Current><DateUtc dt:dt=""string"">2017-07-20T19:26:43Z</DateUtc></FrequencyChange></FrequencyChanges></Clock>\n",59.943,1,940986249,07-20-2017,14:26:43,7:26:43 PM,55,A180913_8T.wav,The DINNER PLATE is HOT.   ,SSN,TypeSPINProc,StimList,the{SPACE}dinner{SPACE}plate{SPACE}is{SPACE}hot{ESCAPE},4572,402275,29,1,55
SPIN,1021,1,"<?xml version=""1.0""?>\n<Clock xmlns:dt=""urn:schemas-microsoft-com:datatypes""><Description dt:dt=""string"">E-Prime Primary Realtime Clock</Description><StartTime><Timestamp dt:dt=""int"">0</Timestamp><DateUtc dt:dt=""string"">2017-07-20T19:26:43Z</DateUtc></StartTime><FrequencyChanges><FrequencyChange><Frequency dt:dt=""r8"">2923085</Frequency><Timestamp dt:dt=""r8"">940409385</Timestamp><Current dt:dt=""r8"">0</Current><DateUtc dt:dt=""string"">2017-07-20T19:26:43Z</DateUtc></FrequencyChange></FrequencyChanges></Clock>\n",59.943,1,940986249,07-20-2017,14:26:43,7:26:43 PM,56,A181002_SSN.wav,The JANITOR USED a BROOM.   ,SSN,TypeSPINProc,StimList,the{SPACE}janitor{SPACE}used{SPACE}a{SPACE}broom{ESCAPE},4905,407546,34,1,56
SPIN,1021,1,"<?xml version=""1.0""?>\n<Clock xmlns:dt=""urn:schemas-microsoft-com:datatypes""><Description dt:dt=""string"">E-Prime Primary Realtime Clock</Description><StartTime><Timestamp dt:dt=""int"">0</Timestamp><DateUtc dt:dt=""string"">2017-07-20T19:26:43Z</DateUtc></StartTime><FrequencyChanges><FrequencyChange><Frequency dt:dt=""r8"">2923085</Frequency><Timestamp dt:dt=""r8"">940409385</Timestamp><Current dt:dt=""r8"">0</Current><DateUtc dt:dt=""string"">2017-07-20T19:26:43Z</DateUtc></FrequencyChange></FrequencyChanges></Clock>\n",59.943,1,940986249,07-20-2017,14:26:43,7:26:43 PM,57,A180704_2T.wav,SHE FOUND her PURSE.,2Talker,TypeSPINProc,StimList,she{SPACE}found{SPACE}her{SPACE}purse{ESCAPE},3979,412042,4,1,57
SPIN,1021,1,"<?xml version=""1.0""?>\n<Clock xmlns:dt=""urn:schemas-microsoft-com:datatypes""><Description dt:dt=""string"">E-Prime Primary Realtime Clock</Description><StartTime><Timestamp dt:dt=""int"">0</Timestamp><DateUtc dt:dt=""string"">2017-07-20T19:26:43Z</DateUtc></StartTime><FrequencyChanges><FrequencyChange><Frequency dt:dt=""r8"">2923085</Frequency><Timestamp dt:dt=""r8"">940409385</Timestamp><Current dt:dt=""r8"">0</Current><DateUtc dt:dt=""string"">2017-07-20T19:26:43Z</DateUtc></FrequencyChange></FrequencyChanges></Clock>\n",59.943,1,940986249,07-20-2017,14:26:43,7:26:43 PM,58,A181503_1T.wav,HE is SUCKING his THUMB.   ,1T,TypeSPINProc,StimList,he{SPACE}is{SPACE}sucking{SPACE}his{SPACE}thumb{ESCAPE},5320,417754,51,1,58
SPIN,1021,1,"<?xml version=""1.0""?>\n<Clock xmlns:dt=""urn:schemas-microsoft-com:datatypes""><Description dt:dt=""string"">E-Prime Primary Realtime Clock</Description><StartTime><Timestamp dt:dt=""int"">0</Timestamp><DateUtc dt:dt=""string"">2017-07-20T19:26:43Z</DateUtc></StartTime><FrequencyChanges><FrequencyChange><Frequency dt:dt=""r8"">2923085</Frequency><Timestamp dt:dt=""r8"">940409385</Timestamp><Current dt:dt=""r8"">0</Current><DateUtc dt:dt=""string"">2017-07-20T19:26:43Z</DateUtc></FrequencyChange></FrequencyChanges></Clock>\n",59.943,1,940986249,07-20-2017,14:26:43,7:26:43 PM,59,A180707_2T.wav,THEY WASHED in COLD WATER.   ,2Talker,TypeSPINProc,StimList,cold{SPACE}water{ESCAPE},5111,423234,7,1,59
SPIN,1021,1,"<?xml version=""1.0""?>\n<Clock xmlns:dt=""urn:schemas-microsoft-com:datatypes""><Description dt:dt=""string"">E-Prime Primary Realtime Clock</Description><StartTime><Timestamp dt:dt=""int"">0</Timestamp><DateUtc dt:dt=""string"">2017-07-20T19:26:43Z</DateUtc></StartTime><FrequencyChanges><FrequencyChange><Frequency dt:dt=""r8"">2923085</Frequency><Timestamp dt:dt=""r8"">940409385</Timestamp><Current dt:dt=""r8"">0</Current><DateUtc dt:dt=""string"">2017-07-20T19:26:43Z</DateUtc></FrequencyChange></FrequencyChanges></Clock>\n",59.943,1,940986249,07-20-2017,14:26:43,7:26:43 PM,60,A181004_SSN.wav,The GOOD BOY is HELPING.   ,SSN,TypeSPINProc,StimList,the{SPACE}good{SPACE}boys{ESCAPE},3940,427601,36,1,60
SPIN,1021,1,"<?xml version=""1.0""?>\n<Clock xmlns:dt=""urn:schemas-microsoft-com:datatypes""><Description dt:dt=""string"">E-Prime Primary Realtime Clock</Description><StartTime><Timestamp dt:dt=""int"">0</Timestamp><DateUtc dt:dt=""string"">2017-07-20T19:26:43Z</DateUtc></StartTime><FrequencyChanges><FrequencyChange><Frequency dt:dt=""r8"">2923085</Frequency><Timestamp dt:dt=""r8"">940409385</Timestamp><Current dt:dt=""r8"">0</Current><DateUtc dt:dt=""string"">2017-07-20T19:26:43Z</DateUtc></FrequencyChange></FrequencyChanges></Clock>\n",59.943,1,940986249,07-20-2017,14:26:43,7:26:43 PM,61,A180904_8T.wav,SHE STOOD near her WINDOW.   ,8Talker,TypeSPINProc,StimList,she{SPACE}stood{SPACE}near{SPACE}her{SPACE}window{ESCAPE},4515,432513,20,1,61
SPIN,1021,1,"<?xml version=""1.0""?>\n<Clock xmlns:dt=""urn:schemas-microsoft-com:datatypes""><Description dt:dt=""string"">E-Prime Primary Realtime Clock</Description><StartTime><Timestamp dt:dt=""int"">0</Timestamp><DateUtc dt:dt=""string"">2017-07-20T19:26:43Z</DateUtc></StartTime><FrequencyChanges><FrequencyChange><Frequency dt:dt=""r8"">2923085</Frequency><Timestamp dt:dt=""r8"">940409385</Timestamp><Current dt:dt=""r8"">0</Current><DateUtc dt:dt=""string"">2017-07-20T19:26:43Z</DateUtc></FrequencyChange></FrequencyChanges></Clock>\n",59.943,1,940986249,07-20-2017,14:26:43,7:26:43 PM,62,A180909_8T.wav,The DISHCLOTH is VERY WET.  ,8Talker,TypeSPINProc,StimList,dish{SPACE}cloth{SPACE}is{SPACE}very{SPACE}wet{ESCAPE},5986,438889,25,1,62
SPIN,1021,1,"<?xml version=""1.0""?>\n<Clock xmlns:dt=""urn:schemas-microsoft-com:datatypes""><Description dt:dt=""string"">E-Prime Primary Realtime Clock</Description><StartTime><Timestamp dt:dt=""int"">0</Timestamp><DateUtc dt:dt=""string"">2017-07-20T19:26:43Z</DateUtc></StartTime><FrequencyChanges><FrequencyChange><Frequency dt:dt=""r8"">2923085</Frequency><Timestamp dt:dt=""r8"">940409385</Timestamp><Current dt:dt=""r8"">0</Current><DateUtc dt:dt=""string"">2017-07-20T19:26:43Z</DateUtc></FrequencyChange></FrequencyChanges></Clock>\n",59.943,1,940986249,07-20-2017,14:26:43,7:26:43 PM,63,A180708_2T.wav,The YOUNG PEOPLE are DANCING.,2Talker,TypeSPINProc,StimList,the{SPACE}young{SPACE}people{SPACE}are{SPACE}dancing{ESCAPE},4566,443992,8,1,63
SPIN,1021,1,"<?xml version=""1.0""?>\n<Clock xmlns:dt=""urn:schemas-microsoft-com:datatypes""><Description dt:dt=""string"">E-Prime Primary Realtime Clock</Description><StartTime><Timestamp dt:dt=""int"">0</Timestamp><DateUtc dt:dt=""string"">2017-07-20T19:26:43Z</DateUtc></StartTime><FrequencyChanges><FrequencyChange><Frequency dt:dt=""r8"">2923085</Frequency><Timestamp dt:dt=""r8"">940409385</Timestamp><Current dt:dt=""r8"">0</Current><DateUtc dt:dt=""string"">2017-07-20T19:26:43Z</DateUtc></FrequencyChange></FrequencyChanges></Clock>\n",59.943,1,940986249,07-20-2017,14:26:43,7:26:43 PM,64,A180902_8T.wav,The YOUNG BOY LEFT HOME.   ,8Talker,TypeSPINProc,StimList,young{SPACE}boy{SPACE}left{ESCAPE},3635,448032,18,1,64