ExperimentName,Subject,Session,Clock.Information,Display.RefreshRate,Group,RandomSeed,SessionDate,SessionTime,SessionTimeUtc,Block,Filename,FileText,Noise,Procedure,Running,Slide1.RESP,Slide1.RT,Slide1.RTTime,StimList,StimList.Cycle,StimList.Sample
SPIN,1013,1,"<?xml version=""1.0""?>\n<Clock xmlns:dt=""urn:schemas-microsoft-com:datatypes""><Description dt:dt=""string"">E-Prime Primary Realtime Clock</Description><StartTime><Timestamp dt:dt=""int"">0</Timestamp><DateUtc dt:dt=""string"">2017-06-21T21:27:59Z</DateUtc></StartTime><FrequencyChanges><FrequencyChange><Frequency dt:dt=""r8"">2923076</Frequency><Timestamp dt:dt=""r8"">1643711154072</Timestamp><Current dt:dt=""r8"">0</Current><DateUtc dt:dt=""string"">2017-06-21T21:27:59Z</DateUtc></FrequencyChange></FrequencyChanges></Clock>\n",60.003,1,-1260738281,06-21-2017,16:27:59,9:27:59 PM,1,A180703_2T.wav,The FLOOR LOOKED CLEAN. ,2Talker,TypeSPINProc,StimList,{SHIFT}People{SPACE}wear{SPACE}shoes{SPACE}on{SPACE}their{SPACE}feet{.}{ESCAPE},14143,107586,3,1,1
SPIN,1013,1,"<?xml version=""1.0""?>\n<Clock xmlns:dt=""urn:schemas-microsoft-com:datatypes""><Description dt:dt=""string"">E-Prime Primary Realtime Clock</Description><StartTime><Timestamp dt:dt=""int"">0</Timestamp><DateUtc dt:dt=""string"">2017-06-21T21:27:59Z</DateUtc></StartTime><FrequencyChanges><FrequencyChange><Frequency dt:dt=""r8"">2923076</Frequency><Timestamp dt:dt=""r8"">1643711154072</Timestamp><Current dt:dt=""r8"">0</Current><DateUtc dt:dt=""string"">2017-06-21T21:27:59Z</DateUtc></FrequencyChange></FrequencyChanges></Clock>\n",60.003,1,-1260738281,06-21-2017,16:27:59,9:27:59 PM,2,A181002_SSN.wav,The JANITOR USED a BROOM.   ,SSN,TypeSPINProc,StimList,{SHIFT}The{SPACE}janitor{SPACE}used{SPACE}a{SPACE}ruler{.}{ESCAPE},13958,123817,34,1,2
SPIN,1013,1,"<?xml version=""1.0""?>\n<Clock xmlns:dt=""urn:schemas-microsoft-com:datatypes""><Description dt:dt=""string"">E-Prime Primary Realtime Clock</Description><StartTime><Timestamp dt:dt=""int"">0</Timestamp><DateUtc dt:dt=""string"">2017-06-21T21:27:59Z</DateUtc></StartTime><FrequencyChanges><FrequencyChange><Frequency dt:dt=""r8"">2923076</Frequency><Timestamp dt:dt=""r8"">1643711154072</Timestamp><Current dt:dt=""r8"">0</Current><DateUtc dt:dt=""string"">2017-06-21T21:27:59Z</DateUtc></FrequencyChange></FrequencyChanges></Clock>\n",60.003,1,-1260738281,06-21-2017,16:27:59,9:27:59 PM,3,A180711_2T.wav,The BALL is BOUNCING very HIGH.   ,2Talker,TypeSPINProc,StimList,{SHIFT}Orange{SPACE}juice{SPACE}is{ESCAPE},14538,141713,11,1,3
SPIN,1013,1,"<?xml version=""1.0""?>\n<Clock xmlns:dt=""urn:schemas-microsoft-com:datatypes""><Description dt:dt=""string"">E-Prime Primary Realtime Clock</Description><StartTime><Timestamp dt:dt=""int"">0</Timestamp><DateUtc dt:dt=""string"">2017-06-21T21:27:59Z</DateUtc></StartTime><FrequencyChanges><FrequencyChange><Frequency dt:dt=""r8"">2923076</Frequency><Timestamp dt:dt=""r8"">1643711154072</Timestamp><Current dt:dt=""r8"">0</Current><DateUtc dt:dt=""string"">2017-06-21T21:27:59Z</DateUtc></FrequencyChange></FrequencyChanges></Clock>\n",60.003,1,-1260738281,06-21-2017,16:27:59,9:27:59 PM,4,A180908_8T.wav,HE LISTENED TO his FATHER.   ,SSN,TypeSPINProc,StimList,{SHIFT}He{SPACE}listened{SPACE}to{SPACE}his{SPACE}father{.}{ESCAPE},14273,158080,24,1,4
SPIN,1013,1,"<?xml version=""1.0""?>\n<Clock xmlns:dt=""urn:schemas-microsoft-com:datatypes""><Description dt:dt=""string"">E-Prime Primary Realtime Clock</Description><StartTime><Timestamp dt:dt=""int"">0</Timestamp><DateUtc dt:dt=""string"">2017-06-21T21:27:59Z</DateUtc></StartTime><FrequencyChanges><FrequencyChange><Frequency dt:dt=""r8"">2923076</Frequency><Timestamp dt:dt=""r8"">1643711154072</Timestamp><Current dt:dt=""r8"">0</Current><DateUtc dt:dt=""string"">2017-06-21T21:27:59Z</DateUtc></FrequencyChange></FrequencyChanges></Clock>\n",60.003,1,-1260738281,06-21-2017,16:27:59,9:27:59 PM,5,A181505_1T.wav,The DRIVER STARTED the ENGINE.   ,1T,TypeSPINProc,StimList,{SHIFT}{SHIFT}People{SPACE}wear{SPACE}shoes{SPACE}on{SPACE}their{SPACE}feet{SPACE}a{SPACE}quarter{ESCAPE},12180,171687,53,1,5
SPIN,1013,1,"<?xml version=""1.0""?>\n<Clock xmlns:dt=""urn:schemas-microsoft-com:datatypes""><Description dt:dt=""string"">E-Prime Primary Realtime Clock</Description><StartTime><Timestamp dt:dt=""int"">0</Timestamp><DateUtc dt:dt=""string"">2017-06-21T21:27:59Z</DateUtc></StartTime><FrequencyChanges><FrequencyChange><Frequency dt:dt=""r8"">2923076</Frequency><Timestamp dt:dt=""r8"">1643711154072</Timestamp><Current dt:dt=""r8"">0</Current><DateUtc dt:dt=""string"">2017-06-21T21:27:59Z</DateUtc></FrequencyChange></FrequencyChanges></Clock>\n",60.003,1,-1260738281,06-21-2017,16:27:59,9:27:59 PM,6,A180705_2T.wav,The FRUIT IS on the GROUND.   ,2Talker,TypeSPINProc,StimList,{SHIFT}To{SPACE}start{SPACE}the{SPACE}day{SPACE}is{ESCAPE},16780,190086,5,1,6
SPIN,1013,1,"<?xml version=""1.0""?>\n<Clock xmlns:dt=""urn:schemas-microsoft-com:datatypes""><Description dt:dt=""string"">E-Prime Primary Realtime Clock</Description><StartTime><Timestamp dt:dt=""int"">0</Timestamp><DateUtc dt:dt=""string"">2017-06-21T21:27:59Z</DateUtc></StartTime><FrequencyChanges><FrequencyChange><Frequency dt:dt=""r8"">2923076</Frequency><Timestamp dt:dt=""r8"">1643711154072</Timestamp><Current dt:dt=""r8"">0</Current><DateUtc dt:dt=""string"">2017-06-21T21:27:59Z</DateUtc></FrequencyChange></FrequencyChanges></Clock>\n",60.003,1,-1260738281,06-21-2017,16:27:59,9:27:59 PM,7,A180902_8T.wav,The YOUNG BOY LEFT HOME.   ,8Talker,TypeSPINProc,StimList,is{SPACE}a{SPACE}bridge{ESCAPE},11139,203077,18,1,7
SPIN,1013,1,"<?xml version=""1.0""?>\n<Clock xmlns:dt=""urn:schemas-microsoft-com:datatypes""><Description dt:dt=""string"">E-Prime Primary Realtime Clock</Description><StartTime><Timestamp dt:dt=""int"">0</Timestamp><DateUtc dt:dt=""string"">2017-06-21T21:27:59Z</DateUtc></StartTime><FrequencyChanges><FrequencyChange><Frequency dt:dt=""r8"">2923076</Frequency><Timestamp dt:dt=""r8"">1643711154072</Timestamp><Current dt:dt=""r8"">0</Current><DateUtc dt:dt=""string"">2017-06-21T21:27:59Z</DateUtc></FrequencyChange></FrequencyChanges></Clock>\n",60.003,1,-1260738281,06-21-2017,16:27:59,9:27:59 PM,8,A181515_1T.wav,The TRAIN STOPS at the STATION.   ,1T,TypeSPINProc,StimList,{SHIFT}For{SPACE}dessert{SPACE}he{SPACE}had{SPACE}apple{SPACE}pie{.}{ESCAPE},10110,215597,63,1,8
SPIN,1013,1,"<?xml version=""1.0""?>\n<Clock xmlns:dt=""urn:schemas-microsoft-com:datatypes""><Description dt:dt=""string"">E-Prime Primary Realtime Clock</Description><StartTime><Timestamp dt:dt=""int"">0</Timestamp><DateUtc dt:dt=""string"">2017-06-21T21:27:59Z</DateUtc></StartTime><FrequencyChanges><FrequencyChange><Frequency dt:dt=""r8"">2923076</Frequency><Timestamp dt:dt=""r8"">1643711154072</Timestamp><Current dt:dt=""r8"">0</Current><DateUtc dt:dt=""string"">2017-06-21T21:27:59Z</DateUtc></FrequencyChange></FrequencyChanges></Clock>\n",60.003,1,-1260738281,06-21-2017,16:27:59,9:27:59 PM,9,A180909_8T.wav,The DISHCLOTH is VERY WET.  ,8Talker,TypeSPINProc,StimList,{SHIFT}The{SPACE}dishwasher{SPACE}is{ESCAPE},12447,230484,25,1,9
SPIN,1013,1,"<?xml version=""1.0""?>\n<Clock xmlns:dt=""urn:schemas-microsoft-com:datatypes""><Description dt:dt=""string"">E-Prime Primary Realtime Clock</Description><StartTime><Timestamp dt:dt=""int"">0</Timestamp><DateUtc dt:dt=""string"">2017-06-21T21:27:59Z</DateUtc></StartTime><FrequencyChanges><FrequencyChange><Frequency dt:dt=""r8"">2923076</Frequency><Timestamp dt:dt=""r8"">1643711154072</Timestamp><Current dt:dt=""r8"">0</Current><DateUtc dt:dt=""string"">2017-06-21T21:27:59Z</DateUtc></FrequencyChange></FrequencyChanges></Clock>\n",60.003,1,-1260738281,06-21-2017,16:27:59,9:27:59 PM,10,A180904_8T.wav,SHE STOOD near her WINDOW.   ,8Talker,TypeSPINProc,StimList,{SHIFT}She{SPACE}started{SPACE}windy{ESCAPE},11966,244019,20,1,10
SPIN,1013,1,"<?xml version=""1.0""?>\n<Clock xmlns:dt=""urn:schemas-microsoft-com:datatypes""><Description dt:dt=""string"">E-Prime Primary Realtime Clock</Description><StartTime><Timestamp dt:dt=""int"">0</Timestamp><DateUtc dt:dt=""string"">2017-06-21T21:27:59Z</DateUtc></StartTime><FrequencyChanges><FrequencyChange><Frequency dt:dt=""r8"">2923076</Frequency><Timestamp dt:dt=""r8"">1643711154072</Timestamp><Current dt:dt=""r8"">0</Current><DateUtc dt:dt=""string"">2017-06-21T21:27:59Z</DateUtc></FrequencyChange></FrequencyChanges></Clock>\n",60.003,1,-1260738281,06-21-2017,16:27:59,9:27:59 PM,11,A180901_8T.wav,The BOOK TELLS a STORY.   ,8Talker,TypeSPINProc,StimList,{SHIFT}Started{SPACE}to{SPACE}tell{SPACE}the{SPACE}story{ESCAPE},20319,265954,17,1,11
SPIN,1013,1,"<?xml version=""1.0""?>\n<Clock xmlns:dt=""urn:schemas-microsoft-com:datatypes""><Description dt:dt=""string"">E-Prime Primary Realtime Clock</Description><StartTime><Timestamp dt:dt=""int"">0</Timestamp><DateUtc dt:dt=""string"">2017-06-21T21:27:59Z</DateUtc></StartTime><FrequencyChanges><FrequencyChange><Frequency dt:dt=""r8"">2923076</Frequency><Timestamp dt:dt=""r8"">1643711154072</Timestamp><Current dt:dt=""r8"">0</Current><DateUtc dt:dt=""string"">2017-06-21T21:27:59Z</DateUtc></FrequencyChange></FrequencyChanges></Clock>\n",60.003,1,-1260738281,06-21-2017,16:27:59,9:27:59 PM,12,A181511_1T.wav,The TINY BABY was PRETTY.   ,1T,TypeSPINProc,StimList,{SHIFT}Bob{SPACE}wore{SPACE}a{SPACE}watch{SPACE}on{SPACE}his{SPACE}wrist{.}{ESCAPE},11784,278801,59,1,12
SPIN,1013,1,"<?xml version=""1.0""?>\n<Clock xmlns:dt=""urn:schemas-microsoft-com:datatypes""><Description dt:dt=""string"">E-Prime Primary Realtime Clock</Description><StartTime><Timestamp dt:dt=""int"">0</Timestamp><DateUtc dt:dt=""string"">2017-06-21T21:27:59Z</DateUtc></StartTime><FrequencyChanges><FrequencyChange><Frequency dt:dt=""r8"">2923076</Frequency><Timestamp dt:dt=""r8"">1643711154072</Timestamp><Current dt:dt=""r8"">0</Current><DateUtc dt:dt=""string"">2017-06-21T21:27:59Z</DateUtc></FrequencyChange></FrequencyChanges></Clock>\n",60.003,1,-1260738281,06-21-2017,16:27:59,9:27:59 PM,13,A181001_SSN.wav,A DISH TOWEL is by the SINK.   ,SSN,TypeSPINProc,StimList,{SHIFT}The{SPACE}dishtowel{SPACE}was{SPACE}by{SPACE}the{SPACE}sink{.}{ESCAPE},10035,289985,33,1,13
SPIN,1013,1,"<?xml version=""1.0""?>\n<Clock xmlns:dt=""urn:schemas-microsoft-com:datatypes""><Description dt:dt=""string"">E-Prime Primary Realtime Clock</Description><StartTime><Timestamp dt:dt=""int"">0</Timestamp><DateUtc dt:dt=""string"">2017-06-21T21:27:59Z</DateUtc></StartTime><FrequencyChanges><FrequencyChange><Frequency dt:dt=""r8"">2923076</Frequency><Timestamp dt:dt=""r8"">1643711154072</Timestamp><Current dt:dt=""r8"">0</Current><DateUtc dt:dt=""string"">2017-06-21T21:27:59Z</DateUtc></FrequencyChange></FrequencyChanges></Clock>\n",60.003,1,-1260738281,06-21-2017,16:27:59,9:27:59 PM,14,A181504_1T.wav,The SHOP CLOSED for LUNCH.   ,1T,TypeSPINProc,StimList,{SHIFT}{SHIFT}He{SPACE}drank{SPACE}some{SPACE}orange{SPACE}juice{.}{ESCAPE},13113,304296,52,1,14
SPIN,1013,1,"<?xml version=""1.0""?>\n<Clock xmlns:dt=""urn:schemas-microsoft-com:datatypes""><Description dt:dt=""string"">E-Prime Primary Realtime Clock</Description><StartTime><Timestamp dt:dt=""int"">0</Timestamp><DateUtc dt:dt=""string"">2017-06-21T21:27:59Z</DateUtc></StartTime><FrequencyChanges><FrequencyChange><Frequency dt:dt=""r8"">2923076</Frequency><Timestamp dt:dt=""r8"">1643711154072</Timestamp><Current dt:dt=""r8"">0</Current><DateUtc dt:dt=""string"">2017-06-21T21:27:59Z</DateUtc></FrequencyChange></FrequencyChanges></Clock>\n",60.003,1,-1260738281,06-21-2017,16:27:59,9:27:59 PM,15,A180914_8T.wav,The TRAIN is MOVING FAST.   ,SSN,TypeSPINProc,StimList,{SHIFT}The{SPACE}train{SPACE}is{SPACE}moving{SPACE}fast{.}{ESCAPE},8820,314319,30,1,15
SPIN,1013,1,"<?xml version=""1.0""?>\n<Clock xmlns:dt=""urn:schemas-microsoft-com:datatypes""><Description dt:dt=""string"">E-Prime Primary Realtime Clock</Description><StartTime><Timestamp dt:dt=""int"">0</Timestamp><DateUtc dt:dt=""string"">2017-06-21T21:27:59Z</DateUtc></StartTime><FrequencyChanges><FrequencyChange><Frequency dt:dt=""r8"">2923076</Frequency><Timestamp dt:dt=""r8"">1643711154072</Timestamp><Current dt:dt=""r8"">0</Current><DateUtc dt:dt=""string"">2017-06-21T21:27:59Z</DateUtc></FrequencyChange></FrequencyChanges></Clock>\n",60.003,1,-1260738281,06-21-2017,16:27:59,9:27:59 PM,16,A181014_SSN.wav,The GROUND was VERY HARD.   ,SSN,TypeSPINProc,StimList,{SHIFT}The{SPACE}ground{SPACE}is{SPACE}very{SPACE}hard{.}{ESCAPE},6673,321855,46,1,16
SPIN,1013,1,"<?xml version=""1.0""?>\n<Clock xmlns:dt=""urn:schemas-microsoft-com:datatypes""><Description dt:dt=""string"">E-Prime Primary Realtime Clock</Description><StartTime><Timestamp dt:dt=""int"">0</Timestamp><DateUtc dt:dt=""string"">2017-06-21T21:27:59Z</DateUtc></StartTime><FrequencyChanges><FrequencyChange><Frequency dt:dt=""r8"">2923076</Frequency><Timestamp dt:dt=""r8"">1643711154072</Timestamp><Current dt:dt=""r8"">0</Current><DateUtc dt:dt=""string"">2017-06-21T21:27:59Z</DateUtc></FrequencyChange></FrequencyChanges></Clock>\n",60.003,1,-1260738281,06-21-2017,16:27:59,9:27:59 PM,17,A181507_1T.wav,Some NICE PEOPLE are COMING.   ,1T,TypeSPINProc,StimList,{SHIFT}Some{SPACE}nice{SPACE}people{SPACE}are{SPACE}coming{.}{ESCAPE},12948,336446,55,1,17
SPIN,1013,1,"<?xml version=""1.0""?>\n<Clock xmlns:dt=""urn:schemas-microsoft-com:datatypes""><Description dt:dt=""string"">E-Prime Primary Realtime Clock</Description><StartTime><Timestamp dt:dt=""int"">0</Timestamp><DateUtc dt:dt=""string"">2017-06-21T21:27:59Z</DateUtc></StartTime><FrequencyChanges><FrequencyChange><Frequency dt:dt=""r8"">2923076</Frequency><Timestamp dt:dt=""r8"">1643711154072</Timestamp><Current dt:dt=""r8"">0</Current><DateUtc dt:dt=""string"">2017-06-21T21:27:59Z</DateUtc></FrequencyChange></FrequencyChanges></Clock>\n",60.003,1,-1260738281,06-21-2017,16:27:59,9:27:59 PM,18,A181506_1T.wav,The BOY HURRIED to SCHOOL.   ,1T,TypeSPINProc,StimList,{SHIFT}Elephants{SPACE}are{SPACE}big{SPACE}animals{.}{ESCAPE},7760,346190,54,1,18
SPIN,1013,1,"<?xml version=""1.0""?>\n<Clock xmlns:dt=""urn:schemas-microsoft-com:datatypes""><Description dt:dt=""string"">E-Prime Primary Realtime Clock</Description><StartTime><Timestamp dt:dt=""int"">0</Timestamp><DateUtc dt:dt=""string"">2017-06-21T21:27:59Z</DateUtc></StartTime><FrequencyChanges><FrequencyChange><Frequency dt:dt=""r8"">2923076</Frequency><Timestamp dt:dt=""r8"">1643711154072</Timestamp><Current dt:dt=""r8"">0</Current><DateUtc dt:dt=""string"">2017-06-21T21:27:59Z</DateUtc></FrequencyChange></FrequencyChanges></Clock>\n",60.003,1,-1260738281,06-21-2017,16:27:59,9:27:59 PM,19,A180910_8T.wav,THEY WENT on a VACATION.   ,SSN,TypeSPINProc,StimList,{SHIFT}They{SPACE}went{SPACE}on{SPACE}vacation{.}{ESCAPE},6318,353781,26,1,19
SPIN,1013,1,"<?xml version=""1.0""?>\n<Clock xmlns:dt=""urn:schemas-microsoft-com:datatypes""><Description dt:dt=""string"">E-Prime Primary Realtime Clock</Description><StartTime><Timestamp dt:dt=""int"">0</Timestamp><DateUtc dt:dt=""string"">2017-06-21T21:27:59Z</DateUtc></StartTime><FrequencyChanges><FrequencyChange><Frequency dt:dt=""r8"">2923076</Frequency><Timestamp dt:dt=""r8"">1643711154072</Timestamp><Current dt:dt=""r8"">0</Current><DateUtc dt:dt=""string"">2017-06-21T21:27:59Z</DateUtc></FrequencyChange></FrequencyChanges></Clock>\n",60.003,1,-1260738281,06-21-2017,16:27:59,9:27:59 PM,20,A181512_1T.wav,The DAUGHTER SET the TABLE.   ,1T,TypeSPINProc,StimList,{SHIFT}He{SPACE}had{SPACE}apple{SPACE}pie{.}{ESCAPE},8691,363637,60,1,20
SPIN,1013,1,"<?xml version=""1.0""?>\n<Clock xmlns:dt=""urn:schemas-microsoft-com:datatypes""><Description dt:dt=""string"">E-Prime Primary Realtime Clock</Description><StartTime><Timestamp dt:dt=""int"">0</Timestamp><DateUtc dt:dt=""string"">2017-06-21T21:27:59Z</DateUtc></StartTime><FrequencyChanges><FrequencyChange><Frequency dt:dt=""r8"">2923076</Frequency><Timestamp dt:dt=""r8"">1643711154072</Timestamp><Current dt:dt=""r8"">0</Current><DateUtc dt:dt=""string"">2017-06-21T21:27:59Z</DateUtc></FrequencyChange></FrequencyChanges></Clock>\n",60.003,1,-1260738281,06-21-2017,16:27:59,9:27:59 PM,21,A181007_SSN.wav,The DOG JUMPED ON the CHAIR.   ,SSN,TypeSPINProc,StimList,{SHIFT}The{SPACE}dog{SPACE}jumped{SPACE}in{SPACE}the{SPACE}chair{.}{ESCAPE},23458,388404,39,1,21
SPIN,1013,1,"<?xml version=""1.0""?>\n<Clock xmlns:dt=""urn:schemas-microsoft-com:datatypes""><Description dt:dt=""string"">E-Prime Primary Realtime Clock</Description><StartTime><Timestamp dt:dt=""int"">0</Timestamp><DateUtc dt:dt=""string"">2017-06-21T21:27:59Z</DateUtc></StartTime><FrequencyChanges><FrequencyChange><Frequency dt:dt=""r8"">2923076</Frequency><Timestamp dt:dt=""r8"">1643711154072</Timestamp><Current dt:dt=""r8"">0</Current><DateUtc dt:dt=""string"">2017-06-21T21:27:59Z</DateUtc></FrequencyChange></FrequencyChanges></Clock>\n",60.003,1,-1260738281,06-21-2017,16:27:59,9:27:59 PM,22,A180706_2T.wav,MOTHER GOT a SAUCEPAN.,2Talker,TypeSPINProc,StimList,{SHIFT}{SHIFT}Mother{SPACE}got{SPACE}from{SPACE}her{SPACE}family{ESCAPE},39386,428897,6,1,22
SPIN,1013,1,"<?xml version=""1.0""?>\n<Clock xmlns:dt=""urn:schemas-microsoft-com:datatypes""><Description dt:dt=""string"">E-Prime Primary Realtime Clock</Description><StartTime><Timestamp dt:dt=""int"">0</Timestamp><DateUtc dt:dt=""string"">2017-06-21T21:27:59Z</DateUtc></StartTime><FrequencyChanges><FrequencyChange><Frequency dt:dt=""r8"">2923076</Frequency><Timestamp dt:dt=""r8"">1643711154072</Timestamp><Current dt:dt=""r8"">0</Current><DateUtc dt:dt=""string"">2017-06-21T21:27:59Z</DateUtc></FrequencyChange></FrequencyChanges></Clock>\n",60.003,1,-1260738281,06-21-2017,16:27:59,9:27:59 PM,23,A180916_8T.wav,The CAR HIT a WALL.   ,SSN,TypeSPINProc,StimList,{SHIFT}The{SPACE}car{SPACE}hit{SPACE}the{SPACE}wall{.}{ESCAPE},6480,436289,32,1,23
SPIN,1013,1,"<?xml version=""1.0""?>\n<Clock xmlns:dt=""urn:schemas-microsoft-com:datatypes""><Description dt:dt=""string"">E-Prime Primary Realtime Clock</Description><StartTime><Timestamp dt:dt=""int"">0</Timestamp><DateUtc dt:dt=""string"">2017-06-21T21:27:59Z</DateUtc></StartTime><FrequencyChanges><FrequencyChange><Frequency dt:dt=""r8"">2923076</Frequency><Timestamp dt:dt=""r8"">1643711154072</Timestamp><Current dt:dt=""r8"">0</Current><DateUtc dt:dt=""string"">2017-06-21T21:27:59Z</DateUtc></FrequencyChange></FrequencyChanges></Clock>\n",60.003,1,-1260738281,06-21-2017,16:27:59,9:27:59 PM,24,A180702_2T.wav,The DOG CAME BACK.   ,2Talker,TypeSPINProc,StimList,{SHIFT}Last{SPACE}night{SPACE}was{SPACE}got{SPACE}beef{ESCAPE},11072,448480,2,1,24
SPIN,1013,1,"<?xml version=""1.0""?>\n<Clock xmlns:dt=""urn:schemas-microsoft-com:datatypes""><Description dt:dt=""string"">E-Prime Primary Realtime Clock</Description><StartTime><Timestamp dt:dt=""int"">0</Timestamp><DateUtc dt:dt=""string"">2017-06-21T21:27:59Z</DateUtc></StartTime><FrequencyChanges><FrequencyChange><Frequency dt:dt=""r8"">2923076</Frequency><Timestamp dt:dt=""r8"">1643711154072</Timestamp><Current dt:dt=""r8"">0</Current><DateUtc dt:dt=""string"">2017-06-21T21:27:59Z</DateUtc></FrequencyChange></FrequencyChanges></Clock>\n",60.003,1,-1260738281,06-21-2017,16:27:59,9:27:59 PM,25,A181502_1T.wav,The OVEN is TOO HOT.,1T,TypeSPINProc,StimList,{SHIFT}The{SPACE}oven{SPACE}his{SPACE}hot{;}{SPACE}{SHIFT}Monday{SPACE}is{SPACE}the{SPACE}first{SPACE}day{SPACE}of{SPACE}the{SPACE}week{.}{ESCAPE},19012,469303,50,1,25
SPIN,1013,1,"<?xml version=""1.0""?>\n<Clock xmlns:dt=""urn:schemas-microsoft-com:datatypes""><Description dt:dt=""string"">E-Prime Primary Realtime Clock</Description><StartTime><Timestamp dt:dt=""int"">0</Timestamp><DateUtc dt:dt=""string"">2017-06-21T21:27:59Z</DateUtc></StartTime><FrequencyChanges><FrequencyChange><Frequency dt:dt=""r8"">2923076</Frequency><Timestamp dt:dt=""r8"">1643711154072</Timestamp><Current dt:dt=""r8"">0</Current><DateUtc dt:dt=""string"">2017-06-21T21:27:59Z</DateUtc></FrequencyChange></FrequencyChanges></Clock>\n",60.003,1,-1260738281,06-21-2017,16:27:59,9:27:59 PM,26,A181010_SSN.wav,THEY are RIDING their BICYCLES.   ,SSN,TypeSPINProc,StimList,{SHIFT}They{SPACE}are{SPACE}riding{SPACE}their{SPACE}bicycles{.}{ESCAPE},10040,480647,42,1,26
SPIN,1013,1,"<?xml version=""1.0""?>\n<Clock xmlns:dt=""urn:schemas-microsoft-com:datatypes""><Description dt:dt=""string"">E-Prime Primary Realtime Clock</Description><StartTime><Timestamp dt:dt=""int"">0</Timestamp><DateUtc dt:dt=""string"">2017-06-21T21:27:59Z</DateUtc></StartTime><FrequencyChanges><FrequencyChange><Frequency dt:dt=""r8"">2923076</Frequency><Timestamp dt:dt=""r8"">1643711154072</Timestamp><Current dt:dt=""r8"">0</Current><DateUtc dt:dt=""string"">2017-06-21T21:27:59Z</DateUtc></FrequencyChange></FrequencyChanges></Clock>\n",60.003,1,-1260738281,06-21-2017,16:27:59,9:27:59 PM,27,A180713_2T.wav,The GIRL has a PICTURE BOOK.   ,2Talker,TypeSPINProc,StimList,{SHIFT}The{SPACE}girl{SPACE}has{SPACE}a{SPACE}shirt{SPACE}on{.}{ESCAPE},12665,494054,13,1,27
SPIN,1013,1,"<?xml version=""1.0""?>\n<Clock xmlns:dt=""urn:schemas-microsoft-com:datatypes""><Description dt:dt=""string"">E-Prime Primary Realtime Clock</Description><StartTime><Timestamp dt:dt=""int"">0</Timestamp><DateUtc dt:dt=""string"">2017-06-21T21:27:59Z</DateUtc></StartTime><FrequencyChanges><FrequencyChange><Frequency dt:dt=""r8"">2923076</Frequency><Timestamp dt:dt=""r8"">1643711154072</Timestamp><Current dt:dt=""r8"">0</Current><DateUtc dt:dt=""string"">2017-06-21T21:27:59Z</DateUtc></FrequencyChange></FrequencyChanges></Clock>\n",60.003,1,-1260738281,06-21-2017,16:27:59,9:27:59 PM,28,A180709_2T.wav,The BUS LEFT EARLY.   ,2Talker,TypeSPINProc,StimList,{SHIFT}Monday{SPACE}is{SPACE}the{SPACE}first{SPACE}day{SPACE}of{SPACE}the{SPACE}week{SPACE}apple{SPACE}pie{ESCAPE},13168,508573,9,1,28
SPIN,1013,1,"<?xml version=""1.0""?>\n<Clock xmlns:dt=""urn:schemas-microsoft-com:datatypes""><Description dt:dt=""string"">E-Prime Primary Realtime Clock</Description><StartTime><Timestamp dt:dt=""int"">0</Timestamp><DateUtc dt:dt=""string"">2017-06-21T21:27:59Z</DateUtc></StartTime><FrequencyChanges><FrequencyChange><Frequency dt:dt=""r8"">2923076</Frequency><Timestamp dt:dt=""r8"">1643711154072</Timestamp><Current dt:dt=""r8"">0</Current><DateUtc dt:dt=""string"">2017-06-21T21:27:59Z</DateUtc></FrequencyChange></FrequencyChanges></Clock>\n",60.003,1,-1260738281,06-21-2017,16:27:59,9:27:59 PM,29,A180913_8T.wav,The DINNER PLATE is HOT.   ,SSN,TypeSPINProc,StimList,the{SPACE}dinner{SPACE}plate{SPACE}is{SPACE}hot{.}{ESCAPE},6683,516221,29,1,29
SPIN,1013,1,"<?xml version=""1.0""?>\n<Clock xmlns:dt=""urn:schemas-microsoft-com:datatypes""><Description dt:dt=""string"">E-Prime Primary Realtime Clock</Description><StartTime><Timestamp dt:dt=""int"">0</Timestamp><DateUtc dt:dt=""string"">2017-06-21T21:27:59Z</DateUtc></StartTime><FrequencyChanges><FrequencyChange><Frequency dt:dt=""r8"">2923076</Frequency><Timestamp dt:dt=""r8"">1643711154072</Timestamp><Current dt:dt=""r8"">0</Current><DateUtc dt:dt=""string"">2017-06-21T21:27:59Z</DateUtc></FrequencyChange></FrequencyChanges></Clock>\n",60.003,1,-1260738281,06-21-2017,16:27:59,9:27:59 PM,30,A181513_1T.wav,THEY WALKED ACROSS the GRASS.   ,1T,TypeSPINProc,StimList,{SHIFT}They{SPACE}walked{SPACE}across{SPACE}the{SPACE}grass{.}{ESCAPE},6931,523852,61,1,30
SPIN,1013,1,"<?xml version=""1.0""?>\n<Clock xmlns:dt=""urn:schemas-microsoft-com:datatypes""><Description dt:dt=""string"">E-Prime Primary Realtime Clock</Description><StartTime><Timestamp dt:dt=""int"">0</Timestamp><DateUtc dt:dt=""string"">2017-06-21T21:27:59Z</DateUtc></StartTime><FrequencyChanges><FrequencyChange><Frequency dt:dt=""r8"">2923076</Frequency><Timestamp dt:dt=""r8"">1643711154072</Timestamp><Current dt:dt=""r8"">0</Current><DateUtc dt:dt=""string"">2017-06-21T21:27:59Z</DateUtc></FrequencyChange></FrequencyChanges></Clock>\n",60.003,1,-1260738281,06-21-2017,16:27:59,9:27:59 PM,31,A181016_SSN.wav,The CHICKEN LAID some EGGS.   ,SSN,TypeSPINProc,StimList,{SHIFT}The{SPACE}chicken{SPACE}laid{SPACE}some{SPACE}eggs{.}{ESCAPE},10256,537060,48,1,31
SPIN,1013,1,"<?xml version=""1.0""?>\n<Clock xmlns:dt=""urn:schemas-microsoft-com:datatypes""><Description dt:dt=""string"">E-Prime Primary Realtime Clock</Description><StartTime><Timestamp dt:dt=""int"">0</Timestamp><DateUtc dt:dt=""string"">2017-06-21T21:27:59Z</DateUtc></StartTime><FrequencyChanges><FrequencyChange><Frequency dt:dt=""r8"">2923076</Frequency><Timestamp dt:dt=""r8"">1643711154072</Timestamp><Current dt:dt=""r8"">0</Current><DateUtc dt:dt=""string"">2017-06-21T21:27:59Z</DateUtc></FrequencyChange></FrequencyChanges></Clock>\n",60.003,1,-1260738281,06-21-2017,16:27:59,9:27:59 PM,32,A180704_2T.wav,SHE FOUND her PURSE.,2Talker,TypeSPINProc,StimList,{SHIFT}She{SPACE}found{SPACE}her{SPACE}purse{.}{ESCAPE},7536,548739,4,1,32
SPIN,1013,1,"<?xml version=""1.0""?>\n<Clock xmlns:dt=""urn:schemas-microsoft-com:datatypes""><Description dt:dt=""string"">E-Prime Primary Realtime Clock</Description><StartTime><Timestamp dt:dt=""int"">0</Timestamp><DateUtc dt:dt=""string"">2017-06-21T21:27:59Z</DateUtc></StartTime><FrequencyChanges><FrequencyChange><Frequency dt:dt=""r8"">2923076</Frequency><Timestamp dt:dt=""r8"">1643711154072</Timestamp><Current dt:dt=""r8"">0</Current><DateUtc dt:dt=""string"">2017-06-21T21:27:59Z</DateUtc></FrequencyChange></FrequencyChanges></Clock>\n",60.003,1,-1260738281,06-21-2017,16:27:59,9:27:59 PM,33,A180903_8T.wav,THEY are CLIMBING the TREE.   ,8Talker,TypeSPINProc,StimList,{SHIFT}They{SPACE}are{SPACE}clients{SPACE}frames{SPACE}loud{ESCAPE},18768,569354,19,1,33
SPIN,1013,1,"<?xml version=""1.0""?>\n<Clock xmlns:dt=""urn:schemas-microsoft-com:datatypes""><Description dt:dt=""string"">E-Prime Primary Realtime Clock</Description><StartTime><Timestamp dt:dt=""int"">0</Timestamp><DateUtc dt:dt=""string"">2017-06-21T21:27:59Z</DateUtc></StartTime><FrequencyChanges><FrequencyChange><Frequency dt:dt=""r8"">2923076</Frequency><Timestamp dt:dt=""r8"">1643711154072</Timestamp><Current dt:dt=""r8"">0</Current><DateUtc dt:dt=""string"">2017-06-21T21:27:59Z</DateUtc></FrequencyChange></FrequencyChanges></Clock>\n",60.003,1,-1260738281,06-21-2017,16:27:59,9:27:59 PM,34,A181011_SSN.wav,HE BROKE his LEG.   ,SSN,TypeSPINProc,StimList,{SHIFT}He{SPACE}broke{SPACE}his{SPACE}leg{.}{ESCAPE},11784,581969,43,1,34
SPIN,1013,1,"<?xml version=""1.0""?>\n<Clock xmlns:dt=""urn:schemas-microsoft-com:datatypes""><Description dt:dt=""string"">E-Prime Primary Realtime Clock</Description><StartTime><Timestamp dt:dt=""int"">0</Timestamp><DateUtc dt:dt=""string"">2017-06-21T21:27:59Z</DateUtc></StartTime><FrequencyChanges><FrequencyChange><Frequency dt:dt=""r8"">2923076</Frequency><Timestamp dt:dt=""r8"">1643711154072</Timestamp><Current dt:dt=""r8"">0</Current><DateUtc dt:dt=""string"">2017-06-21T21:27:59Z</DateUtc></FrequencyChange></FrequencyChanges></Clock>\n",60.003,1,-1260738281,06-21-2017,16:27:59,9:27:59 PM,35,A180716_2T.wav,The NEW ROAD is on the MAP.   ,2Talker,TypeSPINProc,StimList,{SHIFT}The{SPACE}new{SPACE}road{SPACE}a{SPACE}field{ESCAPE},13631,596265,16,1,35
SPIN,1013,1,"<?xml version=""1.0""?>\n<Clock xmlns:dt=""urn:schemas-microsoft-com:datatypes""><Description dt:dt=""string"">E-Prime Primary Realtime Clock</Description><StartTime><Timestamp dt:dt=""int"">0</Timestamp><DateUtc dt:dt=""string"">2017-06-21T21:27:59Z</DateUtc></StartTime><FrequencyChanges><FrequencyChange><Frequency dt:dt=""r8"">2923076</Frequency><Timestamp dt:dt=""r8"">1643711154072</Timestamp><Current dt:dt=""r8"">0</Current><DateUtc dt:dt=""string"">2017-06-21T21:27:59Z</DateUtc></FrequencyChange></FrequencyChanges></Clock>\n",60.003,1,-1260738281,06-21-2017,16:27:59,9:27:59 PM,36,A181012_SSN.wav,The MILK was by the FRONT DOOR.   ,SSN,TypeSPINProc,StimList,{SHIFT}The{SPACE}milk{SPACE}is{SPACE}by{SPACE}the{SPACE}front{SPACE}door{.}{ESCAPE},11445,609128,44,1,36
SPIN,1013,1,"<?xml version=""1.0""?>\n<Clock xmlns:dt=""urn:schemas-microsoft-com:datatypes""><Description dt:dt=""string"">E-Prime Primary Realtime Clock</Description><StartTime><Timestamp dt:dt=""int"">0</Timestamp><DateUtc dt:dt=""string"">2017-06-21T21:27:59Z</DateUtc></StartTime><FrequencyChanges><FrequencyChange><Frequency dt:dt=""r8"">2923076</Frequency><Timestamp dt:dt=""r8"">1643711154072</Timestamp><Current dt:dt=""r8"">0</Current><DateUtc dt:dt=""string"">2017-06-21T21:27:59Z</DateUtc></FrequencyChange></FrequencyChanges></Clock>\n",60.003,1,-1260738281,06-21-2017,16:27:59,9:27:59 PM,37,A181003_SSN.wav,THEY SAT on a WOODEN BENCH.   ,SSN,TypeSPINProc,StimList,{SHIFT}They{SPACE}sat{SPACE}on{SPACE}the{SPACE}wood{SPACE}couch{.}{ESCAPE},13698,624031,35,1,37
SPIN,1013,1,"<?xml version=""1.0""?>\n<Clock xmlns:dt=""urn:schemas-microsoft-com:datatypes""><Description dt:dt=""string"">E-Prime Primary Realtime Clock</Description><StartTime><Timestamp dt:dt=""int"">0</Timestamp><DateUtc dt:dt=""string"">2017-06-21T21:27:59Z</DateUtc></StartTime><FrequencyChanges><FrequencyChange><Frequency dt:dt=""r8"">2923076</Frequency><Timestamp dt:dt=""r8"">1643711154072</Timestamp><Current dt:dt=""r8"">0</Current><DateUtc dt:dt=""string"">2017-06-21T21:27:59Z</DateUtc></FrequencyChange></FrequencyChanges></Clock>\n",60.003,1,-1260738281,06-21-2017,16:27:59,9:27:59 PM,38,A181516_1T.wav,The PUPPY PLAYS with a BALL.   ,1T,TypeSPINProc,StimList,{SHIFT}The{SPACE}warplane{SPACE}dropped{SPACE}the{SPACE}bomb{.}{ESCAPE},9890,635222,64,1,38
SPIN,1013,1,"<?xml version=""1.0""?>\n<Clock xmlns:dt=""urn:schemas-microsoft-com:datatypes""><Description dt:dt=""string"">E-Prime Primary Realtime Clock</Description><StartTime><Timestamp dt:dt=""int"">0</Timestamp><DateUtc dt:dt=""string"">2017-06-21T21:27:59Z</DateUtc></StartTime><FrequencyChanges><FrequencyChange><Frequency dt:dt=""r8"">2923076</Frequency><Timestamp dt:dt=""r8"">1643711154072</Timestamp><Current dt:dt=""r8"">0</Current><DateUtc dt:dt=""string"">2017-06-21T21:27:59Z</DateUtc></FrequencyChange></FrequencyChanges></Clock>\n",60.003,1,-1260738281,06-21-2017,16:27:59,9:27:59 PM,39,A181503_1T.wav,HE is SUCKING his THUMB.   ,1T,TypeSPINProc,StimList,{SHIFT}He{SPACE}is{SPACE}sucking{SPACE}his{SPACE}thumb{;}{SPACE}{SHIFT}I{SPACE}wore{SPACE}the{SPACE}hat{SPACE}on{SPACE}my{SPACE}head{.}{ESCAPE},19850,655781,51,1,39
SPIN,1013,1,"<?xml version=""1.0""?>\n<Clock xmlns:dt=""urn:schemas-microsoft-com:datatypes""><Description dt:dt=""string"">E-Prime Primary Realtime Clock</Description><StartTime><Timestamp dt:dt=""int"">0</Timestamp><DateUtc dt:dt=""string"">2017-06-21T21:27:59Z</DateUtc></StartTime><FrequencyChanges><FrequencyChange><Frequency dt:dt=""r8"">2923076</Frequency><Timestamp dt:dt=""r8"">1643711154072</Timestamp><Current dt:dt=""r8"">0</Current><DateUtc dt:dt=""string"">2017-06-21T21:27:59Z</DateUtc></FrequencyChange></FrequencyChanges></Clock>\n",60.003,1,-1260738281,06-21-2017,16:27:59,9:27:59 PM,40,A181008_SSN.wav,SOMEONE is CROSSING the ROAD.   ,SSN,TypeSPINProc,StimList,{SHIFT}Someone{SPACE}is{SPACE}crossing{SPACE}the{SPACE}road{.}{ESCAPE},8107,665637,40,1,40
SPIN,1013,1,"<?xml version=""1.0""?>\n<Clock xmlns:dt=""urn:schemas-microsoft-com:datatypes""><Description dt:dt=""string"">E-Prime Primary Realtime Clock</Description><StartTime><Timestamp dt:dt=""int"">0</Timestamp><DateUtc dt:dt=""string"">2017-06-21T21:27:59Z</DateUtc></StartTime><FrequencyChanges><FrequencyChange><Frequency dt:dt=""r8"">2923076</Frequency><Timestamp dt:dt=""r8"">1643711154072</Timestamp><Current dt:dt=""r8"">0</Current><DateUtc dt:dt=""string"">2017-06-21T21:27:59Z</DateUtc></FrequencyChange></FrequencyChanges></Clock>\n",60.003,1,-1260738281,06-21-2017,16:27:59,9:27:59 PM,41,A180907_8T.wav,The FIVE MEN are WORKING.    ,8Talker,TypeSPINProc,StimList,{SHIFT}The{SPACE}five{SPACE}is{SPACE}sure{ESCAPE},13652,680732,23,1,41
SPIN,1013,1,"<?xml version=""1.0""?>\n<Clock xmlns:dt=""urn:schemas-microsoft-com:datatypes""><Description dt:dt=""string"">E-Prime Primary Realtime Clock</Description><StartTime><Timestamp dt:dt=""int"">0</Timestamp><DateUtc dt:dt=""string"">2017-06-21T21:27:59Z</DateUtc></StartTime><FrequencyChanges><FrequencyChange><Frequency dt:dt=""r8"">2923076</Frequency><Timestamp dt:dt=""r8"">1643711154072</Timestamp><Current dt:dt=""r8"">0</Current><DateUtc dt:dt=""string"">2017-06-21T21:27:59Z</DateUtc></FrequencyChange></FrequencyChanges></Clock>\n",60.003,1,-1260738281,06-21-2017,16:27:59,9:27:59 PM,42,A180714_2T.wav,The ORANGE was VERY SWEET.   ,2Talker,TypeSPINProc,StimList,{SHIFT}Orange{SPACE}was{SPACE}a{SPACE}cup{SPACE}of{SPACE}coffee{.}{ESCAPE},13471,694867,14,1,42
SPIN,1013,1,"<?xml version=""1.0""?>\n<Clock xmlns:dt=""urn:schemas-microsoft-com:datatypes""><Description dt:dt=""string"">E-Prime Primary Realtime Clock</Description><StartTime><Timestamp dt:dt=""int"">0</Timestamp><DateUtc dt:dt=""string"">2017-06-21T21:27:59Z</DateUtc></StartTime><FrequencyChanges><FrequencyChange><Frequency dt:dt=""r8"">2923076</Frequency><Timestamp dt:dt=""r8"">1643711154072</Timestamp><Current dt:dt=""r8"">0</Current><DateUtc dt:dt=""string"">2017-06-21T21:27:59Z</DateUtc></FrequencyChange></FrequencyChanges></Clock>\n",60.003,1,-1260738281,06-21-2017,16:27:59,9:27:59 PM,43,A181006_SSN.wav,The KITCHEN CLOCK was WRONG.   ,SSN,TypeSPINProc,StimList,{SHIFT}The{SPACE}pigeon{SPACE}plot{SPACE}was{SPACE}wrong{.}{ESCAPE},10628,707323,38,1,43
SPIN,1013,1,"<?xml version=""1.0""?>\n<Clock xmlns:dt=""urn:schemas-microsoft-com:datatypes""><Description dt:dt=""string"">E-Prime Primary Realtime Clock</Description><StartTime><Timestamp dt:dt=""int"">0</Timestamp><DateUtc dt:dt=""string"">2017-06-21T21:27:59Z</DateUtc></StartTime><FrequencyChanges><FrequencyChange><Frequency dt:dt=""r8"">2923076</Frequency><Timestamp dt:dt=""r8"">1643711154072</Timestamp><Current dt:dt=""r8"">0</Current><DateUtc dt:dt=""string"">2017-06-21T21:27:59Z</DateUtc></FrequencyChange></FrequencyChanges></Clock>\n",60.003,1,-1260738281,06-21-2017,16:27:59,9:27:59 PM,44,A181009_SSN.wav,The MAILMAN BROUGHT a LETTER.   ,SSN,TypeSPINProc,StimList,{SHIFT}The{SPACE}mailman{SPACE}got{SPACE}a{SPACE}letter{.}{ESCAPE},6832,715226,41,1,44
SPIN,1013,1,"<?xml version=""1.0""?>\n<Clock xmlns:dt=""urn:schemas-microsoft-com:datatypes""><Description dt:dt=""string"">E-Prime Primary Realtime Clock</Description><StartTime><Timestamp dt:dt=""int"">0</Timestamp><DateUtc dt:dt=""string"">2017-06-21T21:27:59Z</DateUtc></StartTime><FrequencyChanges><FrequencyChange><Frequency dt:dt=""r8"">2923076</Frequency><Timestamp dt:dt=""r8"">1643711154072</Timestamp><Current dt:dt=""r8"">0</Current><DateUtc dt:dt=""string"">2017-06-21T21:27:59Z</DateUtc></FrequencyChange></FrequencyChanges></Clock>\n",60.003,1,-1260738281,06-21-2017,16:27:59,9:27:59 PM,45,A180911_8T.wav,The BABY BROKE his CUP.   ,8Talker,TypeSPINProc,StimList,{SHIFT}There{SPACE}was{SPACE}a{SPACE}tea{SPACE}she{SPACE}soup{ESCAPE},21023,737417,27,1,45
SPIN,1013,1,"<?xml version=""1.0""?>\n<Clock xmlns:dt=""urn:schemas-microsoft-com:datatypes""><Description dt:dt=""string"">E-Prime Primary Realtime Clock</Description><StartTime><Timestamp dt:dt=""int"">0</Timestamp><DateUtc dt:dt=""string"">2017-06-21T21:27:59Z</DateUtc></StartTime><FrequencyChanges><FrequencyChange><Frequency dt:dt=""r8"">2923076</Frequency><Timestamp dt:dt=""r8"">1643711154072</Timestamp><Current dt:dt=""r8"">0</Current><DateUtc dt:dt=""string"">2017-06-21T21:27:59Z</DateUtc></FrequencyChange></FrequencyChanges></Clock>\n",60.003,1,-1260738281,06-21-2017,16:27:59,9:27:59 PM,46,A180912_8T.wav,The LADY PACKED her BAG.   ,SSN,TypeSPINProc,StimList,{SHIFT}The{SPACE}lady{SPACE}packed{SPACE}her{SPACE}bag{.}{ESCAPE},6102,744345,28,1,46
SPIN,1013,1,"<?xml version=""1.0""?>\n<Clock xmlns:dt=""urn:schemas-microsoft-com:datatypes""><Description dt:dt=""string"">E-Prime Primary Realtime Clock</Description><StartTime><Timestamp dt:dt=""int"">0</Timestamp><DateUtc dt:dt=""string"">2017-06-21T21:27:59Z</DateUtc></StartTime><FrequencyChanges><FrequencyChange><Frequency dt:dt=""r8"">2923076</Frequency><Timestamp dt:dt=""r8"">1643711154072</Timestamp><Current dt:dt=""r8"">0</Current><DateUtc dt:dt=""string"">2017-06-21T21:27:59Z</DateUtc></FrequencyChange></FrequencyChanges></Clock>\n",60.003,1,-1260738281,06-21-2017,16:27:59,9:27:59 PM,47,A181508_1T.wav,SHE BUMPED her HEAD.   ,1T,TypeSPINProc,StimList,{SHIFT}Mindy{SPACE}bumped{SPACE}her{SPACE}head{.}{ESCAPE},20268,765360,56,1,47
SPIN,1013,1,"<?xml version=""1.0""?>\n<Clock xmlns:dt=""urn:schemas-microsoft-com:datatypes""><Description dt:dt=""string"">E-Prime Primary Realtime Clock</Description><StartTime><Timestamp dt:dt=""int"">0</Timestamp><DateUtc dt:dt=""string"">2017-06-21T21:27:59Z</DateUtc></StartTime><FrequencyChanges><FrequencyChange><Frequency dt:dt=""r8"">2923076</Frequency><Timestamp dt:dt=""r8"">1643711154072</Timestamp><Current dt:dt=""r8"">0</Current><DateUtc dt:dt=""string"">2017-06-21T21:27:59Z</DateUtc></FrequencyChange></FrequencyChanges></Clock>\n",60.003,1,-1260738281,06-21-2017,16:27:59,9:27:59 PM,48,A181501_1T.wav,A MAN is TURNING the FAUCET.   ,1T,TypeSPINProc,StimList,{SHIFT}A{SPACE}man{SPACE}is{SPACE}turning{SPACE}the{SPACE}faucet{.}{ESCAPE},6384,772775,49,1,48
SPIN,1013,1,"<?xml version=""1.0""?>\n<Clock xmlns:dt=""urn:schemas-microsoft-com:datatypes""><Description dt:dt=""string"">E-Prime Primary Realtime Clock</Description><StartTime><Timestamp dt:dt=""int"">0</Timestamp><DateUtc dt:dt=""string"">2017-06-21T21:27:59Z</DateUtc></StartTime><FrequencyChanges><FrequencyChange><Frequency dt:dt=""r8"">2923076</Frequency><Timestamp dt:dt=""r8"">1643711154072</Timestamp><Current dt:dt=""r8"">0</Current><DateUtc dt:dt=""string"">2017-06-21T21:27:59Z</DateUtc></FrequencyChange></FrequencyChanges></Clock>\n",60.003,1,-1260738281,06-21-2017,16:27:59,9:27:59 PM,49,A180906_8T.wav,A LETTER FELL on the FLOOR.   ,SSN,TypeSPINProc,StimList,{SHIFT}A{SPACE}letter{SPACE}said{SPACE}that{SPACE}lightbulbs{ESCAPE},13877,787718,22,1,49
SPIN,1013,1,"<?xml version=""1.0""?>\n<Clock xmlns:dt=""urn:schemas-microsoft-com:datatypes""><Description dt:dt=""string"">E-Prime Primary Realtime Clock</Description><StartTime><Timestamp dt:dt=""int"">0</Timestamp><DateUtc dt:dt=""string"">2017-06-21T21:27:59Z</DateUtc></StartTime><FrequencyChanges><FrequencyChange><Frequency dt:dt=""r8"">2923076</Frequency><Timestamp dt:dt=""r8"">1643711154072</Timestamp><Current dt:dt=""r8"">0</Current><DateUtc dt:dt=""string"">2017-06-21T21:27:59Z</DateUtc></FrequencyChange></FrequencyChanges></Clock>\n",60.003,1,-1260738281,06-21-2017,16:27:59,9:27:59 PM,50,A181510_1T.wav,The RAINCOAT is HANGING UP.  ,1T,TypeSPINProc,StimList,{SHIFT}The{SPACE}rain{SPACE}coat{SPACE}is{SPACE}hanging{SPACE}up{.}{ESCAPE},8194,796534,58,1,50
SPIN,1013,1,"<?xml version=""1.0""?>\n<Clock xmlns:dt=""urn:schemas-microsoft-com:datatypes""><Description dt:dt=""string"">E-Prime Primary Realtime Clock</Description><StartTime><Timestamp dt:dt=""int"">0</Timestamp><DateUtc dt:dt=""string"">2017-06-21T21:27:59Z</DateUtc></StartTime><FrequencyChanges><FrequencyChange><Frequency dt:dt=""r8"">2923076</Frequency><Timestamp dt:dt=""r8"">1643711154072</Timestamp><Current dt:dt=""r8"">0</Current><DateUtc dt:dt=""string"">2017-06-21T21:27:59Z</DateUtc></FrequencyChange></FrequencyChanges></Clock>\n",60.003,1,-1260738281,06-21-2017,16:27:59,9:27:59 PM,51,A181509_1T.wav,THEY MET SOME FRIENDS.   ,1T,TypeSPINProc,StimList,{SHIFT}He{SPACE}met{SPACE}some{SPACE}friends{.}{ESCAPE},6227,804166,57,1,51
SPIN,1013,1,"<?xml version=""1.0""?>\n<Clock xmlns:dt=""urn:schemas-microsoft-com:datatypes""><Description dt:dt=""string"">E-Prime Primary Realtime Clock</Description><StartTime><Timestamp dt:dt=""int"">0</Timestamp><DateUtc dt:dt=""string"">2017-06-21T21:27:59Z</DateUtc></StartTime><FrequencyChanges><FrequencyChange><Frequency dt:dt=""r8"">2923076</Frequency><Timestamp dt:dt=""r8"">1643711154072</Timestamp><Current dt:dt=""r8"">0</Current><DateUtc dt:dt=""string"">2017-06-21T21:27:59Z</DateUtc></FrequencyChange></FrequencyChanges></Clock>\n",60.003,1,-1260738281,06-21-2017,16:27:59,9:27:59 PM,52,A180905_8T.wav,The TABLE has THREE LEGS.   ,SSN,TypeSPINProc,StimList,{SHIFT}The{SPACE}table{SPACE}has{SPACE}three{SPACE}legs{.}{ESCAPE},6670,811909,21,1,52
SPIN,1013,1,"<?xml version=""1.0""?>\n<Clock xmlns:dt=""urn:schemas-microsoft-com:datatypes""><Description dt:dt=""string"">E-Prime Primary Realtime Clock</Description><StartTime><Timestamp dt:dt=""int"">0</Timestamp><DateUtc dt:dt=""string"">2017-06-21T21:27:59Z</DateUtc></StartTime><FrequencyChanges><FrequencyChange><Frequency dt:dt=""r8"">2923076</Frequency><Timestamp dt:dt=""r8"">1643711154072</Timestamp><Current dt:dt=""r8"">0</Current><DateUtc dt:dt=""string"">2017-06-21T21:27:59Z</DateUtc></FrequencyChange></FrequencyChanges></Clock>\n",60.003,1,-1260738281,06-21-2017,16:27:59,9:27:59 PM,53,A181005_SSN.wav,THEY FOLLOWED the PATH.   ,SSN,TypeSPINProc,StimList,{SHIFT}They{SPACE}followed{SPACE}the{SPACE}cat{.}{ESCAPE},7560,820749,37,1,53
SPIN,1013,1,"<?xml version=""1.0""?>\n<Clock xmlns:dt=""urn:schemas-microsoft-com:datatypes""><Description dt:dt=""string"">E-Prime Primary Realtime Clock</Description><StartTime><Timestamp dt:dt=""int"">0</Timestamp><DateUtc dt:dt=""string"">2017-06-21T21:27:59Z</DateUtc></StartTime><FrequencyChanges><FrequencyChange><Frequency dt:dt=""r8"">2923076</Frequency><Timestamp dt:dt=""r8"">1643711154072</Timestamp><Current dt:dt=""r8"">0</Current><DateUtc dt:dt=""string"">2017-06-21T21:27:59Z</DateUtc></FrequencyChange></FrequencyChanges></Clock>\n",60.003,1,-1260738281,06-21-2017,16:27:59,9:27:59 PM,54,A180701_2T.wav,The CHILDREN DROPPED the BAG,2Talker,TypeSPINProc,StimList,{SHIFT}The{SPACE}children{SPACE}dropped{SPACE}the{SPACE}bag{.}{ESCAPE},7035,828756,1,1,54
SPIN,1013,1,"<?xml version=""1.0""?>\n<Clock xmlns:dt=""urn:schemas-microsoft-com:datatypes""><Description dt:dt=""string"">E-Prime Primary Realtime Clock</Description><StartTime><Timestamp dt:dt=""int"">0</Timestamp><DateUtc dt:dt=""string"">2017-06-21T21:27:59Z</DateUtc></StartTime><FrequencyChanges><FrequencyChange><Frequency dt:dt=""r8"">2923076</Frequency><Timestamp dt:dt=""r8"">1643711154072</Timestamp><Current dt:dt=""r8"">0</Current><DateUtc dt:dt=""string"">2017-06-21T21:27:59Z</DateUtc></FrequencyChange></FrequencyChanges></Clock>\n",60.003,1,-1260738281,06-21-2017,16:27:59,9:27:59 PM,55,A180915_8T.wav,The CHILD DRANK some MILK.   ,SSN,TypeSPINProc,StimList,{SHIFT}The{SPACE}child{SPACE}drank{SPACE}some{SPACE}milk{.}{ESCAPE},6638,836676,31,1,55
SPIN,1013,1,"<?xml version=""1.0""?>\n<Clock xmlns:dt=""urn:schemas-microsoft-com:datatypes""><Description dt:dt=""string"">E-Prime Primary Realtime Clock</Description><StartTime><Timestamp dt:dt=""int"">0</Timestamp><DateUtc dt:dt=""string"">2017-06-21T21:27:59Z</DateUtc></StartTime><FrequencyChanges><FrequencyChange><Frequency dt:dt=""r8"">2923076</Frequency><Timestamp dt:dt=""r8"">1643711154072</Timestamp><Current dt:dt=""r8"">0</Current><DateUtc dt:dt=""string"">2017-06-21T21:27:59Z</DateUtc></FrequencyChange></FrequencyChanges></Clock>\n",60.003,1,-1260738281,06-21-2017,16:27:59,9:27:59 PM,56,A180707_2T.wav,THEY WASHED in COLD WATER.   ,2Talker,TypeSPINProc,StimList,{SHIFT}He{SPACE}washed{SPACE}in{SPACE}cold{SPACE}water{.}{ESCAPE},13210,850931,7,1,56
SPIN,1013,1,"<?xml version=""1.0""?>\n<Clock xmlns:dt=""urn:schemas-microsoft-com:datatypes""><Description dt:dt=""string"">E-Prime Primary Realtime Clock</Description><StartTime><Timestamp dt:dt=""int"">0</Timestamp><DateUtc dt:dt=""string"">2017-06-21T21:27:59Z</DateUtc></StartTime><FrequencyChanges><FrequencyChange><Frequency dt:dt=""r8"">2923076</Frequency><Timestamp dt:dt=""r8"">1643711154072</Timestamp><Current dt:dt=""r8"">0</Current><DateUtc dt:dt=""string"">2017-06-21T21:27:59Z</DateUtc></FrequencyChange></FrequencyChanges></Clock>\n",60.003,1,-1260738281,06-21-2017,16:27:59,9:27:59 PM,57,A180715_2T.wav,HE is HOLDING his NOSE.   ,2Talker,TypeSPINProc,StimList,{SHIFT}{SHIFT}People{SPACE}wear{SPACE}scarves{SPACE}around{SPACE}their{SPACE}necks{.}{ESCAPE},12574,864594,15,1,57
SPIN,1013,1,"<?xml version=""1.0""?>\n<Clock xmlns:dt=""urn:schemas-microsoft-com:datatypes""><Description dt:dt=""string"">E-Prime Primary Realtime Clock</Description><StartTime><Timestamp dt:dt=""int"">0</Timestamp><DateUtc dt:dt=""string"">2017-06-21T21:27:59Z</DateUtc></StartTime><FrequencyChanges><FrequencyChange><Frequency dt:dt=""r8"">2923076</Frequency><Timestamp dt:dt=""r8"">1643711154072</Timestamp><Current dt:dt=""r8"">0</Current><DateUtc dt:dt=""string"">2017-06-21T21:27:59Z</DateUtc></FrequencyChange></FrequencyChanges></Clock>\n",60.003,1,-1260738281,06-21-2017,16:27:59,9:27:59 PM,58,A181004_SSN.wav,The GOOD BOY is HELPING.   ,SSN,TypeSPINProc,StimList,{SHIFT}The{SPACE}good{SPACE}boy{SPACE}is{SPACE}helping{.}{ESCAPE},6709,872178,36,1,58
SPIN,1013,1,"<?xml version=""1.0""?>\n<Clock xmlns:dt=""urn:schemas-microsoft-com:datatypes""><Description dt:dt=""string"">E-Prime Primary Realtime Clock</Description><StartTime><Timestamp dt:dt=""int"">0</Timestamp><DateUtc dt:dt=""string"">2017-06-21T21:27:59Z</DateUtc></StartTime><FrequencyChanges><FrequencyChange><Frequency dt:dt=""r8"">2923076</Frequency><Timestamp dt:dt=""r8"">1643711154072</Timestamp><Current dt:dt=""r8"">0</Current><DateUtc dt:dt=""string"">2017-06-21T21:27:59Z</DateUtc></FrequencyChange></FrequencyChanges></Clock>\n",60.003,1,-1260738281,06-21-2017,16:27:59,9:27:59 PM,59,A181015_SSN.wav,The BUCKETS HOLD WATER.   ,SSN,TypeSPINProc,StimList,{SHIFT}The{SPACE}bucket{SPACE}is{SPACE}full{SPACE}of{SPACE}water{.}{ESCAPE},11868,884753,47,1,59
SPIN,1013,1,"<?xml version=""1.0""?>\n<Clock xmlns:dt=""urn:schemas-microsoft-com:datatypes""><Description dt:dt=""string"">E-Prime Primary Realtime Clock</Description><StartTime><Timestamp dt:dt=""int"">0</Timestamp><DateUtc dt:dt=""string"">2017-06-21T21:27:59Z</DateUtc></StartTime><FrequencyChanges><FrequencyChange><Frequency dt:dt=""r8"">2923076</Frequency><Timestamp dt:dt=""r8"">1643711154072</Timestamp><Current dt:dt=""r8"">0</Current><DateUtc dt:dt=""string"">2017-06-21T21:27:59Z</DateUtc></FrequencyChange></FrequencyChanges></Clock>\n",60.003,1,-1260738281,06-21-2017,16:27:59,9:27:59 PM,60,A180708_2T.wav,The YOUNG PEOPLE are DANCING.,2Talker,TypeSPINProc,StimList,{SHIFT}The{SPACE}young{SPACE}people{SPACE}are{SPACE}dancing{.}{ESCAPE},6664,892049,8,1,60
SPIN,1013,1,"<?xml version=""1.0""?>\n<Clock xmlns:dt=""urn:schemas-microsoft-com:datatypes""><Description dt:dt=""string"">E-Prime Primary Realtime Clock</Description><StartTime><Timestamp dt:dt=""int"">0</Timestamp><DateUtc dt:dt=""string"">2017-06-21T21:27:59Z</DateUtc></StartTime><FrequencyChanges><FrequencyChange><Frequency dt:dt=""r8"">2923076</Frequency><Timestamp dt:dt=""r8"">1643711154072</Timestamp><Current dt:dt=""r8"">0</Current><DateUtc dt:dt=""string"">2017-06-21T21:27:59Z</DateUtc></FrequencyChange></FrequencyChanges></Clock>\n",60.003,1,-1260738281,06-21-2017,16:27:59,9:27:59 PM,61,A180710_2T.wav,THEY had TWO EMPTY BOTTLES.   ,2Talker,TypeSPINProc,StimList,{SHIFT}They{SPACE}had{SPACE}two{SPACE}etched{SPACE}bottles{.}{ESCAPE},10132,903000,10,1,61
SPIN,1013,1,"<?xml version=""1.0""?>\n<Clock xmlns:dt=""urn:schemas-microsoft-com:datatypes""><Description dt:dt=""string"">E-Prime Primary Realtime Clock</Description><StartTime><Timestamp dt:dt=""int"">0</Timestamp><DateUtc dt:dt=""string"">2017-06-21T21:27:59Z</DateUtc></StartTime><FrequencyChanges><FrequencyChange><Frequency dt:dt=""r8"">2923076</Frequency><Timestamp dt:dt=""r8"">1643711154072</Timestamp><Current dt:dt=""r8"">0</Current><DateUtc dt:dt=""string"">2017-06-21T21:27:59Z</DateUtc></FrequencyChange></FrequencyChanges></Clock>\n",60.003,1,-1260738281,06-21-2017,16:27:59,9:27:59 PM,62,A181013_SSN.wav,The SHIRTS are HANGING in the CLOSET.   ,SSN,TypeSPINProc,StimList,{SHIFT}The{SPACE}shirts{SPACE}are{SPACE}hanging{SPACE}in{SPACE}the{SPACE}closet{.}{ESCAPE},10138,914272,45,1,62
SPIN,1013,1,"<?xml version=""1.0""?>\n<Clock xmlns:dt=""urn:schemas-microsoft-com:datatypes""><Description dt:dt=""string"">E-Prime Primary Realtime Clock</Description><StartTime><Timestamp dt:dt=""int"">0</Timestamp><DateUtc dt:dt=""string"">2017-06-21T21:27:59Z</DateUtc></StartTime><FrequencyChanges><FrequencyChange><Frequency dt:dt=""r8"">2923076</Frequency><Timestamp dt:dt=""r8"">1643711154072</Timestamp><Current dt:dt=""r8"">0</Current><DateUtc dt:dt=""string"">2017-06-21T21:27:59Z</DateUtc></FrequencyChange></FrequencyChanges></Clock>\n",60.003,1,-1260738281,06-21-2017,16:27:59,9:27:59 PM,63,A181514_1T.wav,MOTHER TIED the STRING.   ,1T,TypeSPINProc,StimList,{SHIFT}Mother{SPACE}ties{SPACE}a{SPACE}string{.}{ESCAPE},6881,921847,62,1,63
SPIN,1013,1,"<?xml version=""1.0""?>\n<Clock xmlns:dt=""urn:schemas-microsoft-com:datatypes""><Description dt:dt=""string"">E-Prime Primary Realtime Clock</Description><StartTime><Timestamp dt:dt=""int"">0</Timestamp><DateUtc dt:dt=""string"">2017-06-21T21:27:59Z</DateUtc></StartTime><FrequencyChanges><FrequencyChange><Frequency dt:dt=""r8"">2923076</Frequency><Timestamp dt:dt=""r8"">1643711154072</Timestamp><Current dt:dt=""r8"">0</Current><DateUtc dt:dt=""string"">2017-06-21T21:27:59Z</DateUtc></FrequencyChange></FrequencyChanges></Clock>\n",60.003,1,-1260738281,06-21-2017,16:27:59,9:27:59 PM,64,A180712_2T.wav,FATHER FORGOT the BREAD.   ,2Talker,TypeSPINProc,StimList,{SHIFT}The{SPACE}father{SPACE}got{SPACE}the{SPACE}bread{.}{ESCAPE},10633,933199,12,1,64