ExperimentName,Subject,Session,Clock.Information,Display.RefreshRate,Group,RandomSeed,SessionDate,SessionTime,SessionTimeUtc,Block,Filename,FileText,Noise,Procedure,Running,Slide1.RESP,Slide1.RT,Slide1.RTTime,StimList,StimList.Cycle,StimList.Sample
SPIN,1018,1,"<?xml version=""1.0""?>\n<Clock xmlns:dt=""urn:schemas-microsoft-com:datatypes""><Description dt:dt=""string"">E-Prime Primary Realtime Clock</Description><StartTime><Timestamp dt:dt=""int"">0</Timestamp><DateUtc dt:dt=""string"">2017-07-08T14:04:59Z</DateUtc></StartTime><FrequencyChanges><FrequencyChange><Frequency dt:dt=""r8"">2923076</Frequency><Timestamp dt:dt=""r8"">223331862866</Timestamp><Current dt:dt=""r8"">0</Current><DateUtc dt:dt=""string"">2017-07-08T14:04:59Z</DateUtc></FrequencyChange></FrequencyChanges></Clock>\n",60.003,1,-5885218,07-08-2017,09:04:59,2:04:59 PM,1,A181009_SSN.wav,The MAILMAN BROUGHT a LETTER.   ,SSN,TypeSPINProc,StimList,the{SPACE}mailamn{SPACE}delivered{SPACE}the{SPACE}letter{ESCAPE},16622,74878,41,1,1
SPIN,1018,1,"<?xml version=""1.0""?>\n<Clock xmlns:dt=""urn:schemas-microsoft-com:datatypes""><Description dt:dt=""string"">E-Prime Primary Realtime Clock</Description><StartTime><Timestamp dt:dt=""int"">0</Timestamp><DateUtc dt:dt=""string"">2017-07-08T14:04:59Z</DateUtc></StartTime><FrequencyChanges><FrequencyChange><Frequency dt:dt=""r8"">2923076</Frequency><Timestamp dt:dt=""r8"">223331862866</Timestamp><Current dt:dt=""r8"">0</Current><DateUtc dt:dt=""string"">2017-07-08T14:04:59Z</DateUtc></FrequencyChange></FrequencyChanges></Clock>\n",60.003,1,-5885218,07-08-2017,09:04:59,2:04:59 PM,2,A181010_SSN.wav,THEY are RIDING their BICYCLES.   ,SSN,TypeSPINProc,StimList,they{SPACE}are{SPACE}riding{SPACE}their{SPACE}bicycles{ESCAPE},20690,97829,42,1,2
SPIN,1018,1,"<?xml version=""1.0""?>\n<Clock xmlns:dt=""urn:schemas-microsoft-com:datatypes""><Description dt:dt=""string"">E-Prime Primary Realtime Clock</Description><StartTime><Timestamp dt:dt=""int"">0</Timestamp><DateUtc dt:dt=""string"">2017-07-08T14:04:59Z</DateUtc></StartTime><FrequencyChanges><FrequencyChange><Frequency dt:dt=""r8"">2923076</Frequency><Timestamp dt:dt=""r8"">223331862866</Timestamp><Current dt:dt=""r8"">0</Current><DateUtc dt:dt=""string"">2017-07-08T14:04:59Z</DateUtc></FrequencyChange></FrequencyChanges></Clock>\n",60.003,1,-5885218,07-08-2017,09:04:59,2:04:59 PM,3,A180916_8T.wav,The CAR HIT a WALL.   ,SSN,TypeSPINProc,StimList,the{SPACE}car{SPACE}hit{SPACE}a{SPACE}wall{ESCAPE},10247,109884,32,1,3
SPIN,1018,1,"<?xml version=""1.0""?>\n<Clock xmlns:dt=""urn:schemas-microsoft-com:datatypes""><Description dt:dt=""string"">E-Prime Primary Realtime Clock</Description><StartTime><Timestamp dt:dt=""int"">0</Timestamp><DateUtc dt:dt=""string"">2017-07-08T14:04:59Z</DateUtc></StartTime><FrequencyChanges><FrequencyChange><Frequency dt:dt=""r8"">2923076</Frequency><Timestamp dt:dt=""r8"">223331862866</Timestamp><Current dt:dt=""r8"">0</Current><DateUtc dt:dt=""string"">2017-07-08T14:04:59Z</DateUtc></FrequencyChange></FrequencyChanges></Clock>\n",60.003,1,-5885218,07-08-2017,09:04:59,2:04:59 PM,4,A181501_1T.wav,A MAN is TURNING the FAUCET.   ,1T,TypeSPINProc,StimList,birds{SPACE}build{SPACE}their{SPACE}nests{SPACE}in{SPACE}trees{ESCAPE},17624,128211,49,1,4
SPIN,1018,1,"<?xml version=""1.0""?>\n<Clock xmlns:dt=""urn:schemas-microsoft-com:datatypes""><Description dt:dt=""string"">E-Prime Primary Realtime Clock</Description><StartTime><Timestamp dt:dt=""int"">0</Timestamp><DateUtc dt:dt=""string"">2017-07-08T14:04:59Z</DateUtc></StartTime><FrequencyChanges><FrequencyChange><Frequency dt:dt=""r8"">2923076</Frequency><Timestamp dt:dt=""r8"">223331862866</Timestamp><Current dt:dt=""r8"">0</Current><DateUtc dt:dt=""string"">2017-07-08T14:04:59Z</DateUtc></FrequencyChange></FrequencyChanges></Clock>\n",60.003,1,-5885218,07-08-2017,09:04:59,2:04:59 PM,5,A180911_8T.wav,The BABY BROKE his CUP.   ,8Talker,TypeSPINProc,StimList,water{ESCAPE},9919,138755,27,1,5
SPIN,1018,1,"<?xml version=""1.0""?>\n<Clock xmlns:dt=""urn:schemas-microsoft-com:datatypes""><Description dt:dt=""string"">E-Prime Primary Realtime Clock</Description><StartTime><Timestamp dt:dt=""int"">0</Timestamp><DateUtc dt:dt=""string"">2017-07-08T14:04:59Z</DateUtc></StartTime><FrequencyChanges><FrequencyChange><Frequency dt:dt=""r8"">2923076</Frequency><Timestamp dt:dt=""r8"">223331862866</Timestamp><Current dt:dt=""r8"">0</Current><DateUtc dt:dt=""string"">2017-07-08T14:04:59Z</DateUtc></FrequencyChange></FrequencyChanges></Clock>\n",60.003,1,-5885218,07-08-2017,09:04:59,2:04:59 PM,6,A181508_1T.wav,SHE BUMPED her HEAD.   ,1T,TypeSPINProc,StimList,she{SPACE}bumped{SPACE}her{SPACE}head{ESCAPE},15273,155042,56,1,6
SPIN,1018,1,"<?xml version=""1.0""?>\n<Clock xmlns:dt=""urn:schemas-microsoft-com:datatypes""><Description dt:dt=""string"">E-Prime Primary Realtime Clock</Description><StartTime><Timestamp dt:dt=""int"">0</Timestamp><DateUtc dt:dt=""string"">2017-07-08T14:04:59Z</DateUtc></StartTime><FrequencyChanges><FrequencyChange><Frequency dt:dt=""r8"">2923076</Frequency><Timestamp dt:dt=""r8"">223331862866</Timestamp><Current dt:dt=""r8"">0</Current><DateUtc dt:dt=""string"">2017-07-08T14:04:59Z</DateUtc></FrequencyChange></FrequencyChanges></Clock>\n",60.003,1,-5885218,07-08-2017,09:04:59,2:04:59 PM,7,A180706_2T.wav,MOTHER GOT a SAUCEPAN.,2Talker,TypeSPINProc,StimList,the{SPACE}ball{SPACE}the{SPACE}color{SPACE}of{SPACE}a{SPACE}lemon{SPACE}is{ESCAPE},21024,176625,6,1,7
SPIN,1018,1,"<?xml version=""1.0""?>\n<Clock xmlns:dt=""urn:schemas-microsoft-com:datatypes""><Description dt:dt=""string"">E-Prime Primary Realtime Clock</Description><StartTime><Timestamp dt:dt=""int"">0</Timestamp><DateUtc dt:dt=""string"">2017-07-08T14:04:59Z</DateUtc></StartTime><FrequencyChanges><FrequencyChange><Frequency dt:dt=""r8"">2923076</Frequency><Timestamp dt:dt=""r8"">223331862866</Timestamp><Current dt:dt=""r8"">0</Current><DateUtc dt:dt=""string"">2017-07-08T14:04:59Z</DateUtc></FrequencyChange></FrequencyChanges></Clock>\n",60.003,1,-5885218,07-08-2017,09:04:59,2:04:59 PM,8,A181504_1T.wav,The SHOP CLOSED for LUNCH.   ,1T,TypeSPINProc,StimList,the{SPACE}ball{SPACE}hit{SPACE}the{SPACE}goal{SPACE}post{ESCAPE},14035,192568,52,1,8
SPIN,1018,1,"<?xml version=""1.0""?>\n<Clock xmlns:dt=""urn:schemas-microsoft-com:datatypes""><Description dt:dt=""string"">E-Prime Primary Realtime Clock</Description><StartTime><Timestamp dt:dt=""int"">0</Timestamp><DateUtc dt:dt=""string"">2017-07-08T14:04:59Z</DateUtc></StartTime><FrequencyChanges><FrequencyChange><Frequency dt:dt=""r8"">2923076</Frequency><Timestamp dt:dt=""r8"">223331862866</Timestamp><Current dt:dt=""r8"">0</Current><DateUtc dt:dt=""string"">2017-07-08T14:04:59Z</DateUtc></FrequencyChange></FrequencyChanges></Clock>\n",60.003,1,-5885218,07-08-2017,09:04:59,2:04:59 PM,9,A180914_8T.wav,The TRAIN is MOVING FAST.   ,SSN,TypeSPINProc,StimList,the{SPACE}train{SPACE}is{SPACE}moving{SPACE}fast{ESCAPE},12620,205519,30,1,9
SPIN,1018,1,"<?xml version=""1.0""?>\n<Clock xmlns:dt=""urn:schemas-microsoft-com:datatypes""><Description dt:dt=""string"">E-Prime Primary Realtime Clock</Description><StartTime><Timestamp dt:dt=""int"">0</Timestamp><DateUtc dt:dt=""string"">2017-07-08T14:04:59Z</DateUtc></StartTime><FrequencyChanges><FrequencyChange><Frequency dt:dt=""r8"">2923076</Frequency><Timestamp dt:dt=""r8"">223331862866</Timestamp><Current dt:dt=""r8"">0</Current><DateUtc dt:dt=""string"">2017-07-08T14:04:59Z</DateUtc></FrequencyChange></FrequencyChanges></Clock>\n",60.003,1,-5885218,07-08-2017,09:04:59,2:04:59 PM,10,A180902_8T.wav,The YOUNG BOY LEFT HOME.   ,8Talker,TypeSPINProc,StimList,the{SPACE}library{ESCAPE},12182,218230,18,1,10
SPIN,1018,1,"<?xml version=""1.0""?>\n<Clock xmlns:dt=""urn:schemas-microsoft-com:datatypes""><Description dt:dt=""string"">E-Prime Primary Realtime Clock</Description><StartTime><Timestamp dt:dt=""int"">0</Timestamp><DateUtc dt:dt=""string"">2017-07-08T14:04:59Z</DateUtc></StartTime><FrequencyChanges><FrequencyChange><Frequency dt:dt=""r8"">2923076</Frequency><Timestamp dt:dt=""r8"">223331862866</Timestamp><Current dt:dt=""r8"">0</Current><DateUtc dt:dt=""string"">2017-07-08T14:04:59Z</DateUtc></FrequencyChange></FrequencyChanges></Clock>\n",60.003,1,-5885218,07-08-2017,09:04:59,2:04:59 PM,11,A180714_2T.wav,The ORANGE was VERY SWEET.   ,2Talker,TypeSPINProc,StimList,the{SPACE}orange{SPACE}was{SPACE}a{SPACE}cup{SPACE}of{SPACE}coffee{ESCAPE},14041,233622,14,1,11
SPIN,1018,1,"<?xml version=""1.0""?>\n<Clock xmlns:dt=""urn:schemas-microsoft-com:datatypes""><Description dt:dt=""string"">E-Prime Primary Realtime Clock</Description><StartTime><Timestamp dt:dt=""int"">0</Timestamp><DateUtc dt:dt=""string"">2017-07-08T14:04:59Z</DateUtc></StartTime><FrequencyChanges><FrequencyChange><Frequency dt:dt=""r8"">2923076</Frequency><Timestamp dt:dt=""r8"">223331862866</Timestamp><Current dt:dt=""r8"">0</Current><DateUtc dt:dt=""string"">2017-07-08T14:04:59Z</DateUtc></FrequencyChange></FrequencyChanges></Clock>\n",60.003,1,-5885218,07-08-2017,09:04:59,2:04:59 PM,12,A180905_8T.wav,The TABLE has THREE LEGS.   ,SSN,TypeSPINProc,StimList,the{SPACE}table{SPACE}has{SPACE}three{SPACE}legs{ESCAPE},9171,243085,21,1,12
SPIN,1018,1,"<?xml version=""1.0""?>\n<Clock xmlns:dt=""urn:schemas-microsoft-com:datatypes""><Description dt:dt=""string"">E-Prime Primary Realtime Clock</Description><StartTime><Timestamp dt:dt=""int"">0</Timestamp><DateUtc dt:dt=""string"">2017-07-08T14:04:59Z</DateUtc></StartTime><FrequencyChanges><FrequencyChange><Frequency dt:dt=""r8"">2923076</Frequency><Timestamp dt:dt=""r8"">223331862866</Timestamp><Current dt:dt=""r8"">0</Current><DateUtc dt:dt=""string"">2017-07-08T14:04:59Z</DateUtc></FrequencyChange></FrequencyChanges></Clock>\n",60.003,1,-5885218,07-08-2017,09:04:59,2:04:59 PM,13,A181008_SSN.wav,SOMEONE is CROSSING the ROAD.   ,SSN,TypeSPINProc,StimList,someone{SPACE}is{SPACE}c{LEFTARROW}{LEFTARROW}{LEFTARROW}rossing{SPACE}the{SPACE}road{ESCAPE},20271,263684,40,1,13
SPIN,1018,1,"<?xml version=""1.0""?>\n<Clock xmlns:dt=""urn:schemas-microsoft-com:datatypes""><Description dt:dt=""string"">E-Prime Primary Realtime Clock</Description><StartTime><Timestamp dt:dt=""int"">0</Timestamp><DateUtc dt:dt=""string"">2017-07-08T14:04:59Z</DateUtc></StartTime><FrequencyChanges><FrequencyChange><Frequency dt:dt=""r8"">2923076</Frequency><Timestamp dt:dt=""r8"">223331862866</Timestamp><Current dt:dt=""r8"">0</Current><DateUtc dt:dt=""string"">2017-07-08T14:04:59Z</DateUtc></FrequencyChange></FrequencyChanges></Clock>\n",60.003,1,-5885218,07-08-2017,09:04:59,2:04:59 PM,14,A180707_2T.wav,THEY WASHED in COLD WATER.   ,2Talker,TypeSPINProc,StimList,the{SPACE}wash{SPACE}february{SPACE}has{SPACE}twenty{SPACE}eight{SPACE}days{ESCAPE},26038,290083,7,1,14
SPIN,1018,1,"<?xml version=""1.0""?>\n<Clock xmlns:dt=""urn:schemas-microsoft-com:datatypes""><Description dt:dt=""string"">E-Prime Primary Realtime Clock</Description><StartTime><Timestamp dt:dt=""int"">0</Timestamp><DateUtc dt:dt=""string"">2017-07-08T14:04:59Z</DateUtc></StartTime><FrequencyChanges><FrequencyChange><Frequency dt:dt=""r8"">2923076</Frequency><Timestamp dt:dt=""r8"">223331862866</Timestamp><Current dt:dt=""r8"">0</Current><DateUtc dt:dt=""string"">2017-07-08T14:04:59Z</DateUtc></FrequencyChange></FrequencyChanges></Clock>\n",60.003,1,-5885218,07-08-2017,09:04:59,2:04:59 PM,15,A181014_SSN.wav,The GROUND was VERY HARD.   ,SSN,TypeSPINProc,StimList,the{SPACE}ground{SPACE}was{SPACE}very{SPACE}hot{ESCAPE},9498,300642,46,1,15
SPIN,1018,1,"<?xml version=""1.0""?>\n<Clock xmlns:dt=""urn:schemas-microsoft-com:datatypes""><Description dt:dt=""string"">E-Prime Primary Realtime Clock</Description><StartTime><Timestamp dt:dt=""int"">0</Timestamp><DateUtc dt:dt=""string"">2017-07-08T14:04:59Z</DateUtc></StartTime><FrequencyChanges><FrequencyChange><Frequency dt:dt=""r8"">2923076</Frequency><Timestamp dt:dt=""r8"">223331862866</Timestamp><Current dt:dt=""r8"">0</Current><DateUtc dt:dt=""string"">2017-07-08T14:04:59Z</DateUtc></FrequencyChange></FrequencyChanges></Clock>\n",60.003,1,-5885218,07-08-2017,09:04:59,2:04:59 PM,16,A181516_1T.wav,The PUPPY PLAYS with a BALL.   ,1T,TypeSPINProc,StimList,the{SPACE}war{SPACE}plane{SPACE}dropped{SPACE}the{SPACE}bomb{ESCAPE},23801,324761,64,1,16
SPIN,1018,1,"<?xml version=""1.0""?>\n<Clock xmlns:dt=""urn:schemas-microsoft-com:datatypes""><Description dt:dt=""string"">E-Prime Primary Realtime Clock</Description><StartTime><Timestamp dt:dt=""int"">0</Timestamp><DateUtc dt:dt=""string"">2017-07-08T14:04:59Z</DateUtc></StartTime><FrequencyChanges><FrequencyChange><Frequency dt:dt=""r8"">2923076</Frequency><Timestamp dt:dt=""r8"">223331862866</Timestamp><Current dt:dt=""r8"">0</Current><DateUtc dt:dt=""string"">2017-07-08T14:04:59Z</DateUtc></FrequencyChange></FrequencyChanges></Clock>\n",60.003,1,-5885218,07-08-2017,09:04:59,2:04:59 PM,17,A180906_8T.wav,A LETTER FELL on the FLOOR.   ,SSN,TypeSPINProc,StimList,butter{ESCAPE},5755,330897,22,1,17
SPIN,1018,1,"<?xml version=""1.0""?>\n<Clock xmlns:dt=""urn:schemas-microsoft-com:datatypes""><Description dt:dt=""string"">E-Prime Primary Realtime Clock</Description><StartTime><Timestamp dt:dt=""int"">0</Timestamp><DateUtc dt:dt=""string"">2017-07-08T14:04:59Z</DateUtc></StartTime><FrequencyChanges><FrequencyChange><Frequency dt:dt=""r8"">2923076</Frequency><Timestamp dt:dt=""r8"">223331862866</Timestamp><Current dt:dt=""r8"">0</Current><DateUtc dt:dt=""string"">2017-07-08T14:04:59Z</DateUtc></FrequencyChange></FrequencyChanges></Clock>\n",60.003,1,-5885218,07-08-2017,09:04:59,2:04:59 PM,18,A181512_1T.wav,The DAUGHTER SET the TABLE.   ,1T,TypeSPINProc,StimList,he{SPACE}had{SPACE}apple{SPACE}pie{SPACE}rain{SPACE}falls{ESCAPE},12152,343360,60,1,18
SPIN,1018,1,"<?xml version=""1.0""?>\n<Clock xmlns:dt=""urn:schemas-microsoft-com:datatypes""><Description dt:dt=""string"">E-Prime Primary Realtime Clock</Description><StartTime><Timestamp dt:dt=""int"">0</Timestamp><DateUtc dt:dt=""string"">2017-07-08T14:04:59Z</DateUtc></StartTime><FrequencyChanges><FrequencyChange><Frequency dt:dt=""r8"">2923076</Frequency><Timestamp dt:dt=""r8"">223331862866</Timestamp><Current dt:dt=""r8"">0</Current><DateUtc dt:dt=""string"">2017-07-08T14:04:59Z</DateUtc></FrequencyChange></FrequencyChanges></Clock>\n",60.003,1,-5885218,07-08-2017,09:04:59,2:04:59 PM,19,A181503_1T.wav,HE is SUCKING his THUMB.   ,1T,TypeSPINProc,StimList,he{SPACE}is{SPACE}sucking{SPACE}his{SPACE}thumb{ESCAPE},16790,360415,51,1,19
SPIN,1018,1,"<?xml version=""1.0""?>\n<Clock xmlns:dt=""urn:schemas-microsoft-com:datatypes""><Description dt:dt=""string"">E-Prime Primary Realtime Clock</Description><StartTime><Timestamp dt:dt=""int"">0</Timestamp><DateUtc dt:dt=""string"">2017-07-08T14:04:59Z</DateUtc></StartTime><FrequencyChanges><FrequencyChange><Frequency dt:dt=""r8"">2923076</Frequency><Timestamp dt:dt=""r8"">223331862866</Timestamp><Current dt:dt=""r8"">0</Current><DateUtc dt:dt=""string"">2017-07-08T14:04:59Z</DateUtc></FrequencyChange></FrequencyChanges></Clock>\n",60.003,1,-5885218,07-08-2017,09:04:59,2:04:59 PM,20,A181003_SSN.wav,THEY SAT on a WOODEN BENCH.   ,SSN,TypeSPINProc,StimList,they{SPACE}sat{SPACE}on{SPACE}a{SPACE}wooden{SPACE}bench{ESCAPE},8465,369222,35,1,20
SPIN,1018,1,"<?xml version=""1.0""?>\n<Clock xmlns:dt=""urn:schemas-microsoft-com:datatypes""><Description dt:dt=""string"">E-Prime Primary Realtime Clock</Description><StartTime><Timestamp dt:dt=""int"">0</Timestamp><DateUtc dt:dt=""string"">2017-07-08T14:04:59Z</DateUtc></StartTime><FrequencyChanges><FrequencyChange><Frequency dt:dt=""r8"">2923076</Frequency><Timestamp dt:dt=""r8"">223331862866</Timestamp><Current dt:dt=""r8"">0</Current><DateUtc dt:dt=""string"">2017-07-08T14:04:59Z</DateUtc></FrequencyChange></FrequencyChanges></Clock>\n",60.003,1,-5885218,07-08-2017,09:04:59,2:04:59 PM,21,A180910_8T.wav,THEY WENT on a VACATION.   ,SSN,TypeSPINProc,StimList,they{SPACE}went{SPACE}on{SPACE}vacation{ESCAPE},8842,378382,26,1,21
SPIN,1018,1,"<?xml version=""1.0""?>\n<Clock xmlns:dt=""urn:schemas-microsoft-com:datatypes""><Description dt:dt=""string"">E-Prime Primary Realtime Clock</Description><StartTime><Timestamp dt:dt=""int"">0</Timestamp><DateUtc dt:dt=""string"">2017-07-08T14:04:59Z</DateUtc></StartTime><FrequencyChanges><FrequencyChange><Frequency dt:dt=""r8"">2923076</Frequency><Timestamp dt:dt=""r8"">223331862866</Timestamp><Current dt:dt=""r8"">0</Current><DateUtc dt:dt=""string"">2017-07-08T14:04:59Z</DateUtc></FrequencyChange></FrequencyChanges></Clock>\n",60.003,1,-5885218,07-08-2017,09:04:59,2:04:59 PM,22,A181006_SSN.wav,The KITCHEN CLOCK was WRONG.   ,SSN,TypeSPINProc,StimList,the{SPACE}kitchen{SPACE}clock{SPACE}was{SPACE}wrong{ESCAPE},10188,388861,38,1,22
SPIN,1018,1,"<?xml version=""1.0""?>\n<Clock xmlns:dt=""urn:schemas-microsoft-com:datatypes""><Description dt:dt=""string"">E-Prime Primary Realtime Clock</Description><StartTime><Timestamp dt:dt=""int"">0</Timestamp><DateUtc dt:dt=""string"">2017-07-08T14:04:59Z</DateUtc></StartTime><FrequencyChanges><FrequencyChange><Frequency dt:dt=""r8"">2923076</Frequency><Timestamp dt:dt=""r8"">223331862866</Timestamp><Current dt:dt=""r8"">0</Current><DateUtc dt:dt=""string"">2017-07-08T14:04:59Z</DateUtc></FrequencyChange></FrequencyChanges></Clock>\n",60.003,1,-5885218,07-08-2017,09:04:59,2:04:59 PM,23,A181001_SSN.wav,A DISH TOWEL is by the SINK.   ,SSN,TypeSPINProc,StimList,the{SPACE}dish{SPACE}towel{SPACE}is{SPACE}by{SPACE}the{SPACE}sink{ESCAPE},13728,402933,33,1,23
SPIN,1018,1,"<?xml version=""1.0""?>\n<Clock xmlns:dt=""urn:schemas-microsoft-com:datatypes""><Description dt:dt=""string"">E-Prime Primary Realtime Clock</Description><StartTime><Timestamp dt:dt=""int"">0</Timestamp><DateUtc dt:dt=""string"">2017-07-08T14:04:59Z</DateUtc></StartTime><FrequencyChanges><FrequencyChange><Frequency dt:dt=""r8"">2923076</Frequency><Timestamp dt:dt=""r8"">223331862866</Timestamp><Current dt:dt=""r8"">0</Current><DateUtc dt:dt=""string"">2017-07-08T14:04:59Z</DateUtc></FrequencyChange></FrequencyChanges></Clock>\n",60.003,1,-5885218,07-08-2017,09:04:59,2:04:59 PM,24,A180709_2T.wav,The BUS LEFT EARLY.   ,2Talker,TypeSPINProc,StimList,the{SPACE}bus{SPACE}left{SPACE}early{ESCAPE},9423,412644,9,1,24
SPIN,1018,1,"<?xml version=""1.0""?>\n<Clock xmlns:dt=""urn:schemas-microsoft-com:datatypes""><Description dt:dt=""string"">E-Prime Primary Realtime Clock</Description><StartTime><Timestamp dt:dt=""int"">0</Timestamp><DateUtc dt:dt=""string"">2017-07-08T14:04:59Z</DateUtc></StartTime><FrequencyChanges><FrequencyChange><Frequency dt:dt=""r8"">2923076</Frequency><Timestamp dt:dt=""r8"">223331862866</Timestamp><Current dt:dt=""r8"">0</Current><DateUtc dt:dt=""string"">2017-07-08T14:04:59Z</DateUtc></FrequencyChange></FrequencyChanges></Clock>\n",60.003,1,-5885218,07-08-2017,09:04:59,2:04:59 PM,25,A180915_8T.wav,The CHILD DRANK some MILK.   ,SSN,TypeSPINProc,StimList,the{SPACE}child{SPACE}drinks{SPACE}milk{ESCAPE},10826,423764,31,1,25
SPIN,1018,1,"<?xml version=""1.0""?>\n<Clock xmlns:dt=""urn:schemas-microsoft-com:datatypes""><Description dt:dt=""string"">E-Prime Primary Realtime Clock</Description><StartTime><Timestamp dt:dt=""int"">0</Timestamp><DateUtc dt:dt=""string"">2017-07-08T14:04:59Z</DateUtc></StartTime><FrequencyChanges><FrequencyChange><Frequency dt:dt=""r8"">2923076</Frequency><Timestamp dt:dt=""r8"">223331862866</Timestamp><Current dt:dt=""r8"">0</Current><DateUtc dt:dt=""string"">2017-07-08T14:04:59Z</DateUtc></FrequencyChange></FrequencyChanges></Clock>\n",60.003,1,-5885218,07-08-2017,09:04:59,2:04:59 PM,26,A180901_8T.wav,The BOOK TELLS a STORY.   ,8Talker,TypeSPINProc,StimList,she{SPACE}tells{SPACE}a{SPACE}story{SPACE}about{SPACE}a{SPACE}war{SPACE}plane{SPACE}{ESCAPE},16071,440091,17,1,26
SPIN,1018,1,"<?xml version=""1.0""?>\n<Clock xmlns:dt=""urn:schemas-microsoft-com:datatypes""><Description dt:dt=""string"">E-Prime Primary Realtime Clock</Description><StartTime><Timestamp dt:dt=""int"">0</Timestamp><DateUtc dt:dt=""string"">2017-07-08T14:04:59Z</DateUtc></StartTime><FrequencyChanges><FrequencyChange><Frequency dt:dt=""r8"">2923076</Frequency><Timestamp dt:dt=""r8"">223331862866</Timestamp><Current dt:dt=""r8"">0</Current><DateUtc dt:dt=""string"">2017-07-08T14:04:59Z</DateUtc></FrequencyChange></FrequencyChanges></Clock>\n",60.003,1,-5885218,07-08-2017,09:04:59,2:04:59 PM,27,A180708_2T.wav,The YOUNG PEOPLE are DANCING.,2Talker,TypeSPINProc,StimList,the{SPACE}young{SPACE}people{SPACE}are{SPACE}dancing{ESCAPE},9155,449474,8,1,27
SPIN,1018,1,"<?xml version=""1.0""?>\n<Clock xmlns:dt=""urn:schemas-microsoft-com:datatypes""><Description dt:dt=""string"">E-Prime Primary Realtime Clock</Description><StartTime><Timestamp dt:dt=""int"">0</Timestamp><DateUtc dt:dt=""string"">2017-07-08T14:04:59Z</DateUtc></StartTime><FrequencyChanges><FrequencyChange><Frequency dt:dt=""r8"">2923076</Frequency><Timestamp dt:dt=""r8"">223331862866</Timestamp><Current dt:dt=""r8"">0</Current><DateUtc dt:dt=""string"">2017-07-08T14:04:59Z</DateUtc></FrequencyChange></FrequencyChanges></Clock>\n",60.003,1,-5885218,07-08-2017,09:04:59,2:04:59 PM,28,A181514_1T.wav,MOTHER TIED the STRING.   ,1T,TypeSPINProc,StimList,mother{SPACE}tied{SPACE}the{SPACE}string{ESCAPE},10276,459978,62,1,28
SPIN,1018,1,"<?xml version=""1.0""?>\n<Clock xmlns:dt=""urn:schemas-microsoft-com:datatypes""><Description dt:dt=""string"">E-Prime Primary Realtime Clock</Description><StartTime><Timestamp dt:dt=""int"">0</Timestamp><DateUtc dt:dt=""string"">2017-07-08T14:04:59Z</DateUtc></StartTime><FrequencyChanges><FrequencyChange><Frequency dt:dt=""r8"">2923076</Frequency><Timestamp dt:dt=""r8"">223331862866</Timestamp><Current dt:dt=""r8"">0</Current><DateUtc dt:dt=""string"">2017-07-08T14:04:59Z</DateUtc></FrequencyChange></FrequencyChanges></Clock>\n",60.003,1,-5885218,07-08-2017,09:04:59,2:04:59 PM,29,A181505_1T.wav,The DRIVER STARTED the ENGINE.   ,1T,TypeSPINProc,StimList,the{SPACE}driver{SPACE}started{SPACE}the{SPACE}engine{ESCAPE},9893,470161,53,1,29
SPIN,1018,1,"<?xml version=""1.0""?>\n<Clock xmlns:dt=""urn:schemas-microsoft-com:datatypes""><Description dt:dt=""string"">E-Prime Primary Realtime Clock</Description><StartTime><Timestamp dt:dt=""int"">0</Timestamp><DateUtc dt:dt=""string"">2017-07-08T14:04:59Z</DateUtc></StartTime><FrequencyChanges><FrequencyChange><Frequency dt:dt=""r8"">2923076</Frequency><Timestamp dt:dt=""r8"">223331862866</Timestamp><Current dt:dt=""r8"">0</Current><DateUtc dt:dt=""string"">2017-07-08T14:04:59Z</DateUtc></FrequencyChange></FrequencyChanges></Clock>\n",60.003,1,-5885218,07-08-2017,09:04:59,2:04:59 PM,30,A180903_8T.wav,THEY are CLIMBING the TREE.   ,8Talker,TypeSPINProc,StimList,they{SPACE}are{SPACE}climbing{SPACE}the{SPACE}{ESCAPE},9149,479633,19,1,30
SPIN,1018,1,"<?xml version=""1.0""?>\n<Clock xmlns:dt=""urn:schemas-microsoft-com:datatypes""><Description dt:dt=""string"">E-Prime Primary Realtime Clock</Description><StartTime><Timestamp dt:dt=""int"">0</Timestamp><DateUtc dt:dt=""string"">2017-07-08T14:04:59Z</DateUtc></StartTime><FrequencyChanges><FrequencyChange><Frequency dt:dt=""r8"">2923076</Frequency><Timestamp dt:dt=""r8"">223331862866</Timestamp><Current dt:dt=""r8"">0</Current><DateUtc dt:dt=""string"">2017-07-08T14:04:59Z</DateUtc></FrequencyChange></FrequencyChanges></Clock>\n",60.003,1,-5885218,07-08-2017,09:04:59,2:04:59 PM,31,A180716_2T.wav,The NEW ROAD is on the MAP.   ,2Talker,TypeSPINProc,StimList,the{SPACE}new{SPACE}road{SPACE}burns{SPACE}a{SPACE}field{ESCAPE},12883,492784,16,1,31
SPIN,1018,1,"<?xml version=""1.0""?>\n<Clock xmlns:dt=""urn:schemas-microsoft-com:datatypes""><Description dt:dt=""string"">E-Prime Primary Realtime Clock</Description><StartTime><Timestamp dt:dt=""int"">0</Timestamp><DateUtc dt:dt=""string"">2017-07-08T14:04:59Z</DateUtc></StartTime><FrequencyChanges><FrequencyChange><Frequency dt:dt=""r8"">2923076</Frequency><Timestamp dt:dt=""r8"">223331862866</Timestamp><Current dt:dt=""r8"">0</Current><DateUtc dt:dt=""string"">2017-07-08T14:04:59Z</DateUtc></FrequencyChange></FrequencyChanges></Clock>\n",60.003,1,-5885218,07-08-2017,09:04:59,2:04:59 PM,32,A181004_SSN.wav,The GOOD BOY is HELPING.   ,SSN,TypeSPINProc,StimList,the{SPACE}good{SPACE}boy{SPACE}is{SPACE}helping{SPACE}us{ESCAPE},8195,501312,36,1,32
SPIN,1018,1,"<?xml version=""1.0""?>\n<Clock xmlns:dt=""urn:schemas-microsoft-com:datatypes""><Description dt:dt=""string"">E-Prime Primary Realtime Clock</Description><StartTime><Timestamp dt:dt=""int"">0</Timestamp><DateUtc dt:dt=""string"">2017-07-08T14:04:59Z</DateUtc></StartTime><FrequencyChanges><FrequencyChange><Frequency dt:dt=""r8"">2923076</Frequency><Timestamp dt:dt=""r8"">223331862866</Timestamp><Current dt:dt=""r8"">0</Current><DateUtc dt:dt=""string"">2017-07-08T14:04:59Z</DateUtc></FrequencyChange></FrequencyChanges></Clock>\n",60.003,1,-5885218,07-08-2017,09:04:59,2:04:59 PM,33,A180909_8T.wav,The DISHCLOTH is VERY WET.  ,8Talker,TypeSPINProc,StimList,the{SPACE}wash{SPACE}dish{SPACE}cloth{SPACE}is{SPACE}very{SPACE}wet{ESCAPE},17223,518839,25,1,33
SPIN,1018,1,"<?xml version=""1.0""?>\n<Clock xmlns:dt=""urn:schemas-microsoft-com:datatypes""><Description dt:dt=""string"">E-Prime Primary Realtime Clock</Description><StartTime><Timestamp dt:dt=""int"">0</Timestamp><DateUtc dt:dt=""string"">2017-07-08T14:04:59Z</DateUtc></StartTime><FrequencyChanges><FrequencyChange><Frequency dt:dt=""r8"">2923076</Frequency><Timestamp dt:dt=""r8"">223331862866</Timestamp><Current dt:dt=""r8"">0</Current><DateUtc dt:dt=""string"">2017-07-08T14:04:59Z</DateUtc></FrequencyChange></FrequencyChanges></Clock>\n",60.003,1,-5885218,07-08-2017,09:04:59,2:04:59 PM,34,A180713_2T.wav,The GIRL has a PICTURE BOOK.   ,2Talker,TypeSPINProc,StimList,the{SPACE}girl{SPACE}has{SPACE}a{SPACE}picture{SPACE}they{SPACE}build{SPACE}their{SPACE}nests{SPACE}{ESCAPE},16306,535438,13,1,34
SPIN,1018,1,"<?xml version=""1.0""?>\n<Clock xmlns:dt=""urn:schemas-microsoft-com:datatypes""><Description dt:dt=""string"">E-Prime Primary Realtime Clock</Description><StartTime><Timestamp dt:dt=""int"">0</Timestamp><DateUtc dt:dt=""string"">2017-07-08T14:04:59Z</DateUtc></StartTime><FrequencyChanges><FrequencyChange><Frequency dt:dt=""r8"">2923076</Frequency><Timestamp dt:dt=""r8"">223331862866</Timestamp><Current dt:dt=""r8"">0</Current><DateUtc dt:dt=""string"">2017-07-08T14:04:59Z</DateUtc></FrequencyChange></FrequencyChanges></Clock>\n",60.003,1,-5885218,07-08-2017,09:04:59,2:04:59 PM,35,A181515_1T.wav,The TRAIN STOPS at the STATION.   ,1T,TypeSPINProc,StimList,the{SPACE}train{SPACE}stops{SPACE}at{SPACE}the{SPACE}station{SPACE}{ESCAPE},10201,545949,63,1,35
SPIN,1018,1,"<?xml version=""1.0""?>\n<Clock xmlns:dt=""urn:schemas-microsoft-com:datatypes""><Description dt:dt=""string"">E-Prime Primary Realtime Clock</Description><StartTime><Timestamp dt:dt=""int"">0</Timestamp><DateUtc dt:dt=""string"">2017-07-08T14:04:59Z</DateUtc></StartTime><FrequencyChanges><FrequencyChange><Frequency dt:dt=""r8"">2923076</Frequency><Timestamp dt:dt=""r8"">223331862866</Timestamp><Current dt:dt=""r8"">0</Current><DateUtc dt:dt=""string"">2017-07-08T14:04:59Z</DateUtc></FrequencyChange></FrequencyChanges></Clock>\n",60.003,1,-5885218,07-08-2017,09:04:59,2:04:59 PM,36,A181513_1T.wav,THEY WALKED ACROSS the GRASS.   ,1T,TypeSPINProc,StimList,they{SPACE}walked{SPACE}across{SPACE}the{SPACE}grass{ESCAPE},9277,555557,61,1,36
SPIN,1018,1,"<?xml version=""1.0""?>\n<Clock xmlns:dt=""urn:schemas-microsoft-com:datatypes""><Description dt:dt=""string"">E-Prime Primary Realtime Clock</Description><StartTime><Timestamp dt:dt=""int"">0</Timestamp><DateUtc dt:dt=""string"">2017-07-08T14:04:59Z</DateUtc></StartTime><FrequencyChanges><FrequencyChange><Frequency dt:dt=""r8"">2923076</Frequency><Timestamp dt:dt=""r8"">223331862866</Timestamp><Current dt:dt=""r8"">0</Current><DateUtc dt:dt=""string"">2017-07-08T14:04:59Z</DateUtc></FrequencyChange></FrequencyChanges></Clock>\n",60.003,1,-5885218,07-08-2017,09:04:59,2:04:59 PM,37,A181013_SSN.wav,The SHIRTS are HANGING in the CLOSET.   ,SSN,TypeSPINProc,StimList,the{SPACE}shirts{SPACE}are{SPACE}hanging{SPACE}{ESCAPE},8199,564012,45,1,37
SPIN,1018,1,"<?xml version=""1.0""?>\n<Clock xmlns:dt=""urn:schemas-microsoft-com:datatypes""><Description dt:dt=""string"">E-Prime Primary Realtime Clock</Description><StartTime><Timestamp dt:dt=""int"">0</Timestamp><DateUtc dt:dt=""string"">2017-07-08T14:04:59Z</DateUtc></StartTime><FrequencyChanges><FrequencyChange><Frequency dt:dt=""r8"">2923076</Frequency><Timestamp dt:dt=""r8"">223331862866</Timestamp><Current dt:dt=""r8"">0</Current><DateUtc dt:dt=""string"">2017-07-08T14:04:59Z</DateUtc></FrequencyChange></FrequencyChanges></Clock>\n",60.003,1,-5885218,07-08-2017,09:04:59,2:04:59 PM,38,A180907_8T.wav,The FIVE MEN are WORKING.    ,8Talker,TypeSPINProc,StimList,five{SPACE}packages{ESCAPE},9492,573788,23,1,38
SPIN,1018,1,"<?xml version=""1.0""?>\n<Clock xmlns:dt=""urn:schemas-microsoft-com:datatypes""><Description dt:dt=""string"">E-Prime Primary Realtime Clock</Description><StartTime><Timestamp dt:dt=""int"">0</Timestamp><DateUtc dt:dt=""string"">2017-07-08T14:04:59Z</DateUtc></StartTime><FrequencyChanges><FrequencyChange><Frequency dt:dt=""r8"">2923076</Frequency><Timestamp dt:dt=""r8"">223331862866</Timestamp><Current dt:dt=""r8"">0</Current><DateUtc dt:dt=""string"">2017-07-08T14:04:59Z</DateUtc></FrequencyChange></FrequencyChanges></Clock>\n",60.003,1,-5885218,07-08-2017,09:04:59,2:04:59 PM,39,A180704_2T.wav,SHE FOUND her PURSE.,2Talker,TypeSPINProc,StimList,she{SPACE}found{SPACE}her{SPACE}purse{ESCAPE},10158,584187,4,1,39
SPIN,1018,1,"<?xml version=""1.0""?>\n<Clock xmlns:dt=""urn:schemas-microsoft-com:datatypes""><Description dt:dt=""string"">E-Prime Primary Realtime Clock</Description><StartTime><Timestamp dt:dt=""int"">0</Timestamp><DateUtc dt:dt=""string"">2017-07-08T14:04:59Z</DateUtc></StartTime><FrequencyChanges><FrequencyChange><Frequency dt:dt=""r8"">2923076</Frequency><Timestamp dt:dt=""r8"">223331862866</Timestamp><Current dt:dt=""r8"">0</Current><DateUtc dt:dt=""string"">2017-07-08T14:04:59Z</DateUtc></FrequencyChange></FrequencyChanges></Clock>\n",60.003,1,-5885218,07-08-2017,09:04:59,2:04:59 PM,40,A180913_8T.wav,The DINNER PLATE is HOT.   ,SSN,TypeSPINProc,StimList,the{SPACE}dinner{SPACE}plate{SPACE}is{SPACE}hot{ESCAPE},8870,593315,29,1,40
SPIN,1018,1,"<?xml version=""1.0""?>\n<Clock xmlns:dt=""urn:schemas-microsoft-com:datatypes""><Description dt:dt=""string"">E-Prime Primary Realtime Clock</Description><StartTime><Timestamp dt:dt=""int"">0</Timestamp><DateUtc dt:dt=""string"">2017-07-08T14:04:59Z</DateUtc></StartTime><FrequencyChanges><FrequencyChange><Frequency dt:dt=""r8"">2923076</Frequency><Timestamp dt:dt=""r8"">223331862866</Timestamp><Current dt:dt=""r8"">0</Current><DateUtc dt:dt=""string"">2017-07-08T14:04:59Z</DateUtc></FrequencyChange></FrequencyChanges></Clock>\n",60.003,1,-5885218,07-08-2017,09:04:59,2:04:59 PM,41,A181015_SSN.wav,The BUCKETS HOLD WATER.   ,SSN,TypeSPINProc,StimList,the{SPACE}bucket{'}s{SPACE}full{SPACE}of{SPACE}water{ESCAPE},16672,610250,47,1,41
SPIN,1018,1,"<?xml version=""1.0""?>\n<Clock xmlns:dt=""urn:schemas-microsoft-com:datatypes""><Description dt:dt=""string"">E-Prime Primary Realtime Clock</Description><StartTime><Timestamp dt:dt=""int"">0</Timestamp><DateUtc dt:dt=""string"">2017-07-08T14:04:59Z</DateUtc></StartTime><FrequencyChanges><FrequencyChange><Frequency dt:dt=""r8"">2923076</Frequency><Timestamp dt:dt=""r8"">223331862866</Timestamp><Current dt:dt=""r8"">0</Current><DateUtc dt:dt=""string"">2017-07-08T14:04:59Z</DateUtc></FrequencyChange></FrequencyChanges></Clock>\n",60.003,1,-5885218,07-08-2017,09:04:59,2:04:59 PM,42,A181007_SSN.wav,The DOG JUMPED ON the CHAIR.   ,SSN,TypeSPINProc,StimList,the{SPACE}dog{SPACE}jumped{SPACE}on{SPACE}the{SPACE}chair{ESCAPE},13652,624129,39,1,42
SPIN,1018,1,"<?xml version=""1.0""?>\n<Clock xmlns:dt=""urn:schemas-microsoft-com:datatypes""><Description dt:dt=""string"">E-Prime Primary Realtime Clock</Description><StartTime><Timestamp dt:dt=""int"">0</Timestamp><DateUtc dt:dt=""string"">2017-07-08T14:04:59Z</DateUtc></StartTime><FrequencyChanges><FrequencyChange><Frequency dt:dt=""r8"">2923076</Frequency><Timestamp dt:dt=""r8"">223331862866</Timestamp><Current dt:dt=""r8"">0</Current><DateUtc dt:dt=""string"">2017-07-08T14:04:59Z</DateUtc></FrequencyChange></FrequencyChanges></Clock>\n",60.003,1,-5885218,07-08-2017,09:04:59,2:04:59 PM,43,A181005_SSN.wav,THEY FOLLOWED the PATH.   ,SSN,TypeSPINProc,StimList,they{SPACE}followed{SPACE}the{SPACE}path{ESCAPE},7817,632193,37,1,43
SPIN,1018,1,"<?xml version=""1.0""?>\n<Clock xmlns:dt=""urn:schemas-microsoft-com:datatypes""><Description dt:dt=""string"">E-Prime Primary Realtime Clock</Description><StartTime><Timestamp dt:dt=""int"">0</Timestamp><DateUtc dt:dt=""string"">2017-07-08T14:04:59Z</DateUtc></StartTime><FrequencyChanges><FrequencyChange><Frequency dt:dt=""r8"">2923076</Frequency><Timestamp dt:dt=""r8"">223331862866</Timestamp><Current dt:dt=""r8"">0</Current><DateUtc dt:dt=""string"">2017-07-08T14:04:59Z</DateUtc></FrequencyChange></FrequencyChanges></Clock>\n",60.003,1,-5885218,07-08-2017,09:04:59,2:04:59 PM,44,A180701_2T.wav,The CHILDREN DROPPED the BAG,2Talker,TypeSPINProc,StimList,the{SPACE}children{SPACE}dropped{SPACE}the{SPACE}bag{ESCAPE},13443,645936,1,1,44
SPIN,1018,1,"<?xml version=""1.0""?>\n<Clock xmlns:dt=""urn:schemas-microsoft-com:datatypes""><Description dt:dt=""string"">E-Prime Primary Realtime Clock</Description><StartTime><Timestamp dt:dt=""int"">0</Timestamp><DateUtc dt:dt=""string"">2017-07-08T14:04:59Z</DateUtc></StartTime><FrequencyChanges><FrequencyChange><Frequency dt:dt=""r8"">2923076</Frequency><Timestamp dt:dt=""r8"">223331862866</Timestamp><Current dt:dt=""r8"">0</Current><DateUtc dt:dt=""string"">2017-07-08T14:04:59Z</DateUtc></FrequencyChange></FrequencyChanges></Clock>\n",60.003,1,-5885218,07-08-2017,09:04:59,2:04:59 PM,45,A180703_2T.wav,The FLOOR LOOKED CLEAN. ,2Talker,TypeSPINProc,StimList,the{SPACE}board{SPACE}looked{SPACE}clean{ESCAPE},10990,657199,3,1,45
SPIN,1018,1,"<?xml version=""1.0""?>\n<Clock xmlns:dt=""urn:schemas-microsoft-com:datatypes""><Description dt:dt=""string"">E-Prime Primary Realtime Clock</Description><StartTime><Timestamp dt:dt=""int"">0</Timestamp><DateUtc dt:dt=""string"">2017-07-08T14:04:59Z</DateUtc></StartTime><FrequencyChanges><FrequencyChange><Frequency dt:dt=""r8"">2923076</Frequency><Timestamp dt:dt=""r8"">223331862866</Timestamp><Current dt:dt=""r8"">0</Current><DateUtc dt:dt=""string"">2017-07-08T14:04:59Z</DateUtc></FrequencyChange></FrequencyChanges></Clock>\n",60.003,1,-5885218,07-08-2017,09:04:59,2:04:59 PM,46,A180908_8T.wav,HE LISTENED TO his FATHER.   ,SSN,TypeSPINProc,StimList,he{SPACE}listened{SPACE}to{SPACE}his{SPACE}mom{ESCAPE},8787,666295,24,1,46
SPIN,1018,1,"<?xml version=""1.0""?>\n<Clock xmlns:dt=""urn:schemas-microsoft-com:datatypes""><Description dt:dt=""string"">E-Prime Primary Realtime Clock</Description><StartTime><Timestamp dt:dt=""int"">0</Timestamp><DateUtc dt:dt=""string"">2017-07-08T14:04:59Z</DateUtc></StartTime><FrequencyChanges><FrequencyChange><Frequency dt:dt=""r8"">2923076</Frequency><Timestamp dt:dt=""r8"">223331862866</Timestamp><Current dt:dt=""r8"">0</Current><DateUtc dt:dt=""string"">2017-07-08T14:04:59Z</DateUtc></FrequencyChange></FrequencyChanges></Clock>\n",60.003,1,-5885218,07-08-2017,09:04:59,2:04:59 PM,47,A180904_8T.wav,SHE STOOD near her WINDOW.   ,8Talker,TypeSPINProc,StimList,the{SPACE}kids{SPACE}are{SPACE}at{SPACE}the{SPACE}station{SPACE}stood{SPACE}by{SPACE}a{SPACE}window{ESCAPE},15309,681950,20,1,47
SPIN,1018,1,"<?xml version=""1.0""?>\n<Clock xmlns:dt=""urn:schemas-microsoft-com:datatypes""><Description dt:dt=""string"">E-Prime Primary Realtime Clock</Description><StartTime><Timestamp dt:dt=""int"">0</Timestamp><DateUtc dt:dt=""string"">2017-07-08T14:04:59Z</DateUtc></StartTime><FrequencyChanges><FrequencyChange><Frequency dt:dt=""r8"">2923076</Frequency><Timestamp dt:dt=""r8"">223331862866</Timestamp><Current dt:dt=""r8"">0</Current><DateUtc dt:dt=""string"">2017-07-08T14:04:59Z</DateUtc></FrequencyChange></FrequencyChanges></Clock>\n",60.003,1,-5885218,07-08-2017,09:04:59,2:04:59 PM,48,A181509_1T.wav,THEY MET SOME FRIENDS.   ,1T,TypeSPINProc,StimList,they{SPACE}met{SPACE}some{SPACE}friends{ESCAPE},13328,695501,57,1,48
SPIN,1018,1,"<?xml version=""1.0""?>\n<Clock xmlns:dt=""urn:schemas-microsoft-com:datatypes""><Description dt:dt=""string"">E-Prime Primary Realtime Clock</Description><StartTime><Timestamp dt:dt=""int"">0</Timestamp><DateUtc dt:dt=""string"">2017-07-08T14:04:59Z</DateUtc></StartTime><FrequencyChanges><FrequencyChange><Frequency dt:dt=""r8"">2923076</Frequency><Timestamp dt:dt=""r8"">223331862866</Timestamp><Current dt:dt=""r8"">0</Current><DateUtc dt:dt=""string"">2017-07-08T14:04:59Z</DateUtc></FrequencyChange></FrequencyChanges></Clock>\n",60.003,1,-5885218,07-08-2017,09:04:59,2:04:59 PM,49,A180712_2T.wav,FATHER FORGOT the BREAD.   ,2Talker,TypeSPINProc,StimList,the{SPACE}mother{SPACE}was{SPACE}trained{ESCAPE},11088,706861,12,1,49
SPIN,1018,1,"<?xml version=""1.0""?>\n<Clock xmlns:dt=""urn:schemas-microsoft-com:datatypes""><Description dt:dt=""string"">E-Prime Primary Realtime Clock</Description><StartTime><Timestamp dt:dt=""int"">0</Timestamp><DateUtc dt:dt=""string"">2017-07-08T14:04:59Z</DateUtc></StartTime><FrequencyChanges><FrequencyChange><Frequency dt:dt=""r8"">2923076</Frequency><Timestamp dt:dt=""r8"">223331862866</Timestamp><Current dt:dt=""r8"">0</Current><DateUtc dt:dt=""string"">2017-07-08T14:04:59Z</DateUtc></FrequencyChange></FrequencyChanges></Clock>\n",60.003,1,-5885218,07-08-2017,09:04:59,2:04:59 PM,50,A180702_2T.wav,The DOG CAME BACK.   ,2Talker,TypeSPINProc,StimList,last{SPACE}night{SPACE}the{SPACE}dog{SPACE}came{SPACE}home{SPACE}for{SPACE}dinner{ESCAPE},12007,719812,2,1,50
SPIN,1018,1,"<?xml version=""1.0""?>\n<Clock xmlns:dt=""urn:schemas-microsoft-com:datatypes""><Description dt:dt=""string"">E-Prime Primary Realtime Clock</Description><StartTime><Timestamp dt:dt=""int"">0</Timestamp><DateUtc dt:dt=""string"">2017-07-08T14:04:59Z</DateUtc></StartTime><FrequencyChanges><FrequencyChange><Frequency dt:dt=""r8"">2923076</Frequency><Timestamp dt:dt=""r8"">223331862866</Timestamp><Current dt:dt=""r8"">0</Current><DateUtc dt:dt=""string"">2017-07-08T14:04:59Z</DateUtc></FrequencyChange></FrequencyChanges></Clock>\n",60.003,1,-5885218,07-08-2017,09:04:59,2:04:59 PM,51,A181510_1T.wav,The RAINCOAT is HANGING UP.  ,1T,TypeSPINProc,StimList,the{SPACE}rain{SPACE}coat{SPACE}is{SPACE}hanging{SPACE}up{ESCAPE},14226,734331,58,1,51
SPIN,1018,1,"<?xml version=""1.0""?>\n<Clock xmlns:dt=""urn:schemas-microsoft-com:datatypes""><Description dt:dt=""string"">E-Prime Primary Realtime Clock</Description><StartTime><Timestamp dt:dt=""int"">0</Timestamp><DateUtc dt:dt=""string"">2017-07-08T14:04:59Z</DateUtc></StartTime><FrequencyChanges><FrequencyChange><Frequency dt:dt=""r8"">2923076</Frequency><Timestamp dt:dt=""r8"">223331862866</Timestamp><Current dt:dt=""r8"">0</Current><DateUtc dt:dt=""string"">2017-07-08T14:04:59Z</DateUtc></FrequencyChange></FrequencyChanges></Clock>\n",60.003,1,-5885218,07-08-2017,09:04:59,2:04:59 PM,52,A181511_1T.wav,The TINY BABY was PRETTY.   ,1T,TypeSPINProc,StimList,the{SPACE}tiny{SPACE}baby{SPACE}was{SPACE}pretty{ESCAPE},11341,746011,59,1,52
SPIN,1018,1,"<?xml version=""1.0""?>\n<Clock xmlns:dt=""urn:schemas-microsoft-com:datatypes""><Description dt:dt=""string"">E-Prime Primary Realtime Clock</Description><StartTime><Timestamp dt:dt=""int"">0</Timestamp><DateUtc dt:dt=""string"">2017-07-08T14:04:59Z</DateUtc></StartTime><FrequencyChanges><FrequencyChange><Frequency dt:dt=""r8"">2923076</Frequency><Timestamp dt:dt=""r8"">223331862866</Timestamp><Current dt:dt=""r8"">0</Current><DateUtc dt:dt=""string"">2017-07-08T14:04:59Z</DateUtc></FrequencyChange></FrequencyChanges></Clock>\n",60.003,1,-5885218,07-08-2017,09:04:59,2:04:59 PM,53,A181506_1T.wav,The BOY HURRIED to SCHOOL.   ,1T,TypeSPINProc,StimList,the{SPACE}boy{SPACE}hurried{SPACE}to{SPACE}school{ESCAPE},10137,756490,54,1,53
SPIN,1018,1,"<?xml version=""1.0""?>\n<Clock xmlns:dt=""urn:schemas-microsoft-com:datatypes""><Description dt:dt=""string"">E-Prime Primary Realtime Clock</Description><StartTime><Timestamp dt:dt=""int"">0</Timestamp><DateUtc dt:dt=""string"">2017-07-08T14:04:59Z</DateUtc></StartTime><FrequencyChanges><FrequencyChange><Frequency dt:dt=""r8"">2923076</Frequency><Timestamp dt:dt=""r8"">223331862866</Timestamp><Current dt:dt=""r8"">0</Current><DateUtc dt:dt=""string"">2017-07-08T14:04:59Z</DateUtc></FrequencyChange></FrequencyChanges></Clock>\n",60.003,1,-5885218,07-08-2017,09:04:59,2:04:59 PM,54,A180711_2T.wav,The BALL is BOUNCING very HIGH.   ,2Talker,TypeSPINProc,StimList,the{SPACE}ball{SPACE}is{SPACE}boncing{SPACE}very{SPACE}high{ESCAPE},10702,767505,11,1,54
SPIN,1018,1,"<?xml version=""1.0""?>\n<Clock xmlns:dt=""urn:schemas-microsoft-com:datatypes""><Description dt:dt=""string"">E-Prime Primary Realtime Clock</Description><StartTime><Timestamp dt:dt=""int"">0</Timestamp><DateUtc dt:dt=""string"">2017-07-08T14:04:59Z</DateUtc></StartTime><FrequencyChanges><FrequencyChange><Frequency dt:dt=""r8"">2923076</Frequency><Timestamp dt:dt=""r8"">223331862866</Timestamp><Current dt:dt=""r8"">0</Current><DateUtc dt:dt=""string"">2017-07-08T14:04:59Z</DateUtc></FrequencyChange></FrequencyChanges></Clock>\n",60.003,1,-5885218,07-08-2017,09:04:59,2:04:59 PM,55,A181012_SSN.wav,The MILK was by the FRONT DOOR.   ,SSN,TypeSPINProc,StimList,the{SPACE}milk{SPACE}was{SPACE}by{SPACE}the{SPACE}front{SPACE}door{ESCAPE},13816,781601,44,1,55
SPIN,1018,1,"<?xml version=""1.0""?>\n<Clock xmlns:dt=""urn:schemas-microsoft-com:datatypes""><Description dt:dt=""string"">E-Prime Primary Realtime Clock</Description><StartTime><Timestamp dt:dt=""int"">0</Timestamp><DateUtc dt:dt=""string"">2017-07-08T14:04:59Z</DateUtc></StartTime><FrequencyChanges><FrequencyChange><Frequency dt:dt=""r8"">2923076</Frequency><Timestamp dt:dt=""r8"">223331862866</Timestamp><Current dt:dt=""r8"">0</Current><DateUtc dt:dt=""string"">2017-07-08T14:04:59Z</DateUtc></FrequencyChange></FrequencyChanges></Clock>\n",60.003,1,-5885218,07-08-2017,09:04:59,2:04:59 PM,56,A181507_1T.wav,Some NICE PEOPLE are COMING.   ,1T,TypeSPINProc,StimList,some{SPACE}nice{SPACE}people{SPACE}are{SPACE}coming{ESCAPE},11093,792944,55,1,56
SPIN,1018,1,"<?xml version=""1.0""?>\n<Clock xmlns:dt=""urn:schemas-microsoft-com:datatypes""><Description dt:dt=""string"">E-Prime Primary Realtime Clock</Description><StartTime><Timestamp dt:dt=""int"">0</Timestamp><DateUtc dt:dt=""string"">2017-07-08T14:04:59Z</DateUtc></StartTime><FrequencyChanges><FrequencyChange><Frequency dt:dt=""r8"">2923076</Frequency><Timestamp dt:dt=""r8"">223331862866</Timestamp><Current dt:dt=""r8"">0</Current><DateUtc dt:dt=""string"">2017-07-08T14:04:59Z</DateUtc></FrequencyChange></FrequencyChanges></Clock>\n",60.003,1,-5885218,07-08-2017,09:04:59,2:04:59 PM,57,A180715_2T.wav,HE is HOLDING his NOSE.   ,2Talker,TypeSPINProc,StimList,people{SPACE}wear{SPACE}scarves{SPACE}around{SPACE}their{SPACE}neck{ESCAPE},26948,820199,15,1,57
SPIN,1018,1,"<?xml version=""1.0""?>\n<Clock xmlns:dt=""urn:schemas-microsoft-com:datatypes""><Description dt:dt=""string"">E-Prime Primary Realtime Clock</Description><StartTime><Timestamp dt:dt=""int"">0</Timestamp><DateUtc dt:dt=""string"">2017-07-08T14:04:59Z</DateUtc></StartTime><FrequencyChanges><FrequencyChange><Frequency dt:dt=""r8"">2923076</Frequency><Timestamp dt:dt=""r8"">223331862866</Timestamp><Current dt:dt=""r8"">0</Current><DateUtc dt:dt=""string"">2017-07-08T14:04:59Z</DateUtc></FrequencyChange></FrequencyChanges></Clock>\n",60.003,1,-5885218,07-08-2017,09:04:59,2:04:59 PM,58,A180705_2T.wav,The FRUIT IS on the GROUND.   ,2Talker,TypeSPINProc,StimList,our{SPACE}fruit{SPACE}is{SPACE}on{SPACE}the{SPACE}ground{ESCAPE},10440,831006,5,1,58
SPIN,1018,1,"<?xml version=""1.0""?>\n<Clock xmlns:dt=""urn:schemas-microsoft-com:datatypes""><Description dt:dt=""string"">E-Prime Primary Realtime Clock</Description><StartTime><Timestamp dt:dt=""int"">0</Timestamp><DateUtc dt:dt=""string"">2017-07-08T14:04:59Z</DateUtc></StartTime><FrequencyChanges><FrequencyChange><Frequency dt:dt=""r8"">2923076</Frequency><Timestamp dt:dt=""r8"">223331862866</Timestamp><Current dt:dt=""r8"">0</Current><DateUtc dt:dt=""string"">2017-07-08T14:04:59Z</DateUtc></FrequencyChange></FrequencyChanges></Clock>\n",60.003,1,-5885218,07-08-2017,09:04:59,2:04:59 PM,59,A181502_1T.wav,The OVEN is TOO HOT.,1T,TypeSPINProc,StimList,the{SPACE}oven{SPACE}is{SPACE}too{SPACE}hot{ESCAPE},6228,837510,50,1,59
SPIN,1018,1,"<?xml version=""1.0""?>\n<Clock xmlns:dt=""urn:schemas-microsoft-com:datatypes""><Description dt:dt=""string"">E-Prime Primary Realtime Clock</Description><StartTime><Timestamp dt:dt=""int"">0</Timestamp><DateUtc dt:dt=""string"">2017-07-08T14:04:59Z</DateUtc></StartTime><FrequencyChanges><FrequencyChange><Frequency dt:dt=""r8"">2923076</Frequency><Timestamp dt:dt=""r8"">223331862866</Timestamp><Current dt:dt=""r8"">0</Current><DateUtc dt:dt=""string"">2017-07-08T14:04:59Z</DateUtc></FrequencyChange></FrequencyChanges></Clock>\n",60.003,1,-5885218,07-08-2017,09:04:59,2:04:59 PM,60,A180710_2T.wav,THEY had TWO EMPTY BOTTLES.   ,2Talker,TypeSPINProc,StimList,they{SPACE}had{SPACE}two{SPACE}empty{SPACE}bottles{ESCAPE},9677,847509,10,1,60
SPIN,1018,1,"<?xml version=""1.0""?>\n<Clock xmlns:dt=""urn:schemas-microsoft-com:datatypes""><Description dt:dt=""string"">E-Prime Primary Realtime Clock</Description><StartTime><Timestamp dt:dt=""int"">0</Timestamp><DateUtc dt:dt=""string"">2017-07-08T14:04:59Z</DateUtc></StartTime><FrequencyChanges><FrequencyChange><Frequency dt:dt=""r8"">2923076</Frequency><Timestamp dt:dt=""r8"">223331862866</Timestamp><Current dt:dt=""r8"">0</Current><DateUtc dt:dt=""string"">2017-07-08T14:04:59Z</DateUtc></FrequencyChange></FrequencyChanges></Clock>\n",60.003,1,-5885218,07-08-2017,09:04:59,2:04:59 PM,61,A181002_SSN.wav,The JANITOR USED a BROOM.   ,SSN,TypeSPINProc,StimList,the{SPACE}janitor{SPACE}used{SPACE}a{SPACE}broom{SPACE}{ESCAPE},8647,856445,34,1,61
SPIN,1018,1,"<?xml version=""1.0""?>\n<Clock xmlns:dt=""urn:schemas-microsoft-com:datatypes""><Description dt:dt=""string"">E-Prime Primary Realtime Clock</Description><StartTime><Timestamp dt:dt=""int"">0</Timestamp><DateUtc dt:dt=""string"">2017-07-08T14:04:59Z</DateUtc></StartTime><FrequencyChanges><FrequencyChange><Frequency dt:dt=""r8"">2923076</Frequency><Timestamp dt:dt=""r8"">223331862866</Timestamp><Current dt:dt=""r8"">0</Current><DateUtc dt:dt=""string"">2017-07-08T14:04:59Z</DateUtc></FrequencyChange></FrequencyChanges></Clock>\n",60.003,1,-5885218,07-08-2017,09:04:59,2:04:59 PM,62,A180912_8T.wav,The LADY PACKED her BAG.   ,SSN,TypeSPINProc,StimList,the{SPACE}lady{SPACE}packed{SPACE}her{SPACE}bag{ESCAPE},11240,868004,28,1,62
SPIN,1018,1,"<?xml version=""1.0""?>\n<Clock xmlns:dt=""urn:schemas-microsoft-com:datatypes""><Description dt:dt=""string"">E-Prime Primary Realtime Clock</Description><StartTime><Timestamp dt:dt=""int"">0</Timestamp><DateUtc dt:dt=""string"">2017-07-08T14:04:59Z</DateUtc></StartTime><FrequencyChanges><FrequencyChange><Frequency dt:dt=""r8"">2923076</Frequency><Timestamp dt:dt=""r8"">223331862866</Timestamp><Current dt:dt=""r8"">0</Current><DateUtc dt:dt=""string"">2017-07-08T14:04:59Z</DateUtc></FrequencyChange></FrequencyChanges></Clock>\n",60.003,1,-5885218,07-08-2017,09:04:59,2:04:59 PM,63,A181016_SSN.wav,The CHICKEN LAID some EGGS.   ,SSN,TypeSPINProc,StimList,the{SPACE}chicken{SPACE}laid{SPACE}some{SPACE}eggs{ESCAPE},13386,881683,48,1,63
SPIN,1018,1,"<?xml version=""1.0""?>\n<Clock xmlns:dt=""urn:schemas-microsoft-com:datatypes""><Description dt:dt=""string"">E-Prime Primary Realtime Clock</Description><StartTime><Timestamp dt:dt=""int"">0</Timestamp><DateUtc dt:dt=""string"">2017-07-08T14:04:59Z</DateUtc></StartTime><FrequencyChanges><FrequencyChange><Frequency dt:dt=""r8"">2923076</Frequency><Timestamp dt:dt=""r8"">223331862866</Timestamp><Current dt:dt=""r8"">0</Current><DateUtc dt:dt=""string"">2017-07-08T14:04:59Z</DateUtc></FrequencyChange></FrequencyChanges></Clock>\n",60.003,1,-5885218,07-08-2017,09:04:59,2:04:59 PM,64,A181011_SSN.wav,HE BROKE his LEG.   ,SSN,TypeSPINProc,StimList,he{SPACE}broke{SPACE}his{SPACE}leg{ESCAPE},9424,891403,43,1,64