ExperimentName,Subject,Session,Clock.Information,Display.RefreshRate,Group,RandomSeed,SessionDate,SessionTime,SessionTimeUtc,Block,Filename,FileText,Noise,Procedure,Running,Slide1.RESP,Slide1.RT,Slide1.RTTime,StimList,StimList.Cycle,StimList.Sample
SPIN,2006,1,"<?xml version=""1.0""?>\n<Clock xmlns:dt=""urn:schemas-microsoft-com:datatypes""><Description dt:dt=""string"">E-Prime Primary Realtime Clock</Description><StartTime><Timestamp dt:dt=""int"">0</Timestamp><DateUtc dt:dt=""string"">2017-07-10T14:36:19Z</DateUtc></StartTime><FrequencyChanges><FrequencyChange><Frequency dt:dt=""r8"">2923076</Frequency><Timestamp dt:dt=""r8"">733902014135</Timestamp><Current dt:dt=""r8"">0</Current><DateUtc dt:dt=""string"">2017-07-10T14:36:19Z</DateUtc></FrequencyChange></FrequencyChanges></Clock>\n",60.003,1,-536831884,07-10-2017,09:36:19,2:36:19 PM,1,A180912_8T.wav,The LADY PACKED her BAG.   ,SSN,TypeSPINProc,StimList,the{SPACE}lady{SPACE}passed{SPACE}the{SPACE}bag{ESCAPE},22832,44655,28,1,1
SPIN,2006,1,"<?xml version=""1.0""?>\n<Clock xmlns:dt=""urn:schemas-microsoft-com:datatypes""><Description dt:dt=""string"">E-Prime Primary Realtime Clock</Description><StartTime><Timestamp dt:dt=""int"">0</Timestamp><DateUtc dt:dt=""string"">2017-07-10T14:36:19Z</DateUtc></StartTime><FrequencyChanges><FrequencyChange><Frequency dt:dt=""r8"">2923076</Frequency><Timestamp dt:dt=""r8"">733902014135</Timestamp><Current dt:dt=""r8"">0</Current><DateUtc dt:dt=""string"">2017-07-10T14:36:19Z</DateUtc></FrequencyChange></FrequencyChanges></Clock>\n",60.003,1,-536831884,07-10-2017,09:36:19,2:36:19 PM,2,A181004_SSN.wav,The GOOD BOY is HELPING.   ,SSN,TypeSPINProc,StimList,the{SPACE}good{SPACE}boy{SPACE}is{SPACE}jumping{ESCAPE},16846,65334,36,1,2
SPIN,2006,1,"<?xml version=""1.0""?>\n<Clock xmlns:dt=""urn:schemas-microsoft-com:datatypes""><Description dt:dt=""string"">E-Prime Primary Realtime Clock</Description><StartTime><Timestamp dt:dt=""int"">0</Timestamp><DateUtc dt:dt=""string"">2017-07-10T14:36:19Z</DateUtc></StartTime><FrequencyChanges><FrequencyChange><Frequency dt:dt=""r8"">2923076</Frequency><Timestamp dt:dt=""r8"">733902014135</Timestamp><Current dt:dt=""r8"">0</Current><DateUtc dt:dt=""string"">2017-07-10T14:36:19Z</DateUtc></FrequencyChange></FrequencyChanges></Clock>\n",60.003,1,-536831884,07-10-2017,09:36:19,2:36:19 PM,3,A181007_SSN.wav,The DOG JUMPED ON the CHAIR.   ,SSN,TypeSPINProc,StimList,the{SPACE}dog{SPACE}jumped{SPACE}out{SPACE}the{SPACE}cham{ESCAPE},14868,80605,39,1,3
SPIN,2006,1,"<?xml version=""1.0""?>\n<Clock xmlns:dt=""urn:schemas-microsoft-com:datatypes""><Description dt:dt=""string"">E-Prime Primary Realtime Clock</Description><StartTime><Timestamp dt:dt=""int"">0</Timestamp><DateUtc dt:dt=""string"">2017-07-10T14:36:19Z</DateUtc></StartTime><FrequencyChanges><FrequencyChange><Frequency dt:dt=""r8"">2923076</Frequency><Timestamp dt:dt=""r8"">733902014135</Timestamp><Current dt:dt=""r8"">0</Current><DateUtc dt:dt=""string"">2017-07-10T14:36:19Z</DateUtc></FrequencyChange></FrequencyChanges></Clock>\n",60.003,1,-536831884,07-10-2017,09:36:19,2:36:19 PM,4,A180903_8T.wav,THEY are CLIMBING the TREE.   ,8Talker,TypeSPINProc,StimList,louds{ESCAPE},11047,91916,19,1,4
SPIN,2006,1,"<?xml version=""1.0""?>\n<Clock xmlns:dt=""urn:schemas-microsoft-com:datatypes""><Description dt:dt=""string"">E-Prime Primary Realtime Clock</Description><StartTime><Timestamp dt:dt=""int"">0</Timestamp><DateUtc dt:dt=""string"">2017-07-10T14:36:19Z</DateUtc></StartTime><FrequencyChanges><FrequencyChange><Frequency dt:dt=""r8"">2923076</Frequency><Timestamp dt:dt=""r8"">733902014135</Timestamp><Current dt:dt=""r8"">0</Current><DateUtc dt:dt=""string"">2017-07-10T14:36:19Z</DateUtc></FrequencyChange></FrequencyChanges></Clock>\n",60.003,1,-536831884,07-10-2017,09:36:19,2:36:19 PM,5,A181009_SSN.wav,The MAILMAN BROUGHT a LETTER.   ,SSN,TypeSPINProc,StimList,the{SPACE}mailing{ESCAPE},10995,103964,41,1,5
SPIN,2006,1,"<?xml version=""1.0""?>\n<Clock xmlns:dt=""urn:schemas-microsoft-com:datatypes""><Description dt:dt=""string"">E-Prime Primary Realtime Clock</Description><StartTime><Timestamp dt:dt=""int"">0</Timestamp><DateUtc dt:dt=""string"">2017-07-10T14:36:19Z</DateUtc></StartTime><FrequencyChanges><FrequencyChange><Frequency dt:dt=""r8"">2923076</Frequency><Timestamp dt:dt=""r8"">733902014135</Timestamp><Current dt:dt=""r8"">0</Current><DateUtc dt:dt=""string"">2017-07-10T14:36:19Z</DateUtc></FrequencyChange></FrequencyChanges></Clock>\n",60.003,1,-536831884,07-10-2017,09:36:19,2:36:19 PM,6,A180906_8T.wav,A LETTER FELL on the FLOOR.   ,SSN,TypeSPINProc,StimList,the{SPACE}{SHIFT}X{SPACE}name{ESCAPE},24258,128626,22,1,6
SPIN,2006,1,"<?xml version=""1.0""?>\n<Clock xmlns:dt=""urn:schemas-microsoft-com:datatypes""><Description dt:dt=""string"">E-Prime Primary Realtime Clock</Description><StartTime><Timestamp dt:dt=""int"">0</Timestamp><DateUtc dt:dt=""string"">2017-07-10T14:36:19Z</DateUtc></StartTime><FrequencyChanges><FrequencyChange><Frequency dt:dt=""r8"">2923076</Frequency><Timestamp dt:dt=""r8"">733902014135</Timestamp><Current dt:dt=""r8"">0</Current><DateUtc dt:dt=""string"">2017-07-10T14:36:19Z</DateUtc></FrequencyChange></FrequencyChanges></Clock>\n",60.003,1,-536831884,07-10-2017,09:36:19,2:36:19 PM,7,A181504_1T.wav,The SHOP CLOSED for LUNCH.   ,1T,TypeSPINProc,StimList,we{SPACE}heard{SPACE}the{SPACE}{ESCAPE},11911,141578,52,1,7
SPIN,2006,1,"<?xml version=""1.0""?>\n<Clock xmlns:dt=""urn:schemas-microsoft-com:datatypes""><Description dt:dt=""string"">E-Prime Primary Realtime Clock</Description><StartTime><Timestamp dt:dt=""int"">0</Timestamp><DateUtc dt:dt=""string"">2017-07-10T14:36:19Z</DateUtc></StartTime><FrequencyChanges><FrequencyChange><Frequency dt:dt=""r8"">2923076</Frequency><Timestamp dt:dt=""r8"">733902014135</Timestamp><Current dt:dt=""r8"">0</Current><DateUtc dt:dt=""string"">2017-07-10T14:36:19Z</DateUtc></FrequencyChange></FrequencyChanges></Clock>\n",60.003,1,-536831884,07-10-2017,09:36:19,2:36:19 PM,8,A181514_1T.wav,MOTHER TIED the STRING.   ,1T,TypeSPINProc,StimList,the{SPACE}mother{SPACE}tight{SPACE}the{SPACE}string{ESCAPE},13450,155833,62,1,8
SPIN,2006,1,"<?xml version=""1.0""?>\n<Clock xmlns:dt=""urn:schemas-microsoft-com:datatypes""><Description dt:dt=""string"">E-Prime Primary Realtime Clock</Description><StartTime><Timestamp dt:dt=""int"">0</Timestamp><DateUtc dt:dt=""string"">2017-07-10T14:36:19Z</DateUtc></StartTime><FrequencyChanges><FrequencyChange><Frequency dt:dt=""r8"">2923076</Frequency><Timestamp dt:dt=""r8"">733902014135</Timestamp><Current dt:dt=""r8"">0</Current><DateUtc dt:dt=""string"">2017-07-10T14:36:19Z</DateUtc></FrequencyChange></FrequencyChanges></Clock>\n",60.003,1,-536831884,07-10-2017,09:36:19,2:36:19 PM,9,A180909_8T.wav,The DISHCLOTH is VERY WET.  ,8Talker,TypeSPINProc,StimList,dishwasher{ESCAPE},7394,163576,25,1,9
SPIN,2006,1,"<?xml version=""1.0""?>\n<Clock xmlns:dt=""urn:schemas-microsoft-com:datatypes""><Description dt:dt=""string"">E-Prime Primary Realtime Clock</Description><StartTime><Timestamp dt:dt=""int"">0</Timestamp><DateUtc dt:dt=""string"">2017-07-10T14:36:19Z</DateUtc></StartTime><FrequencyChanges><FrequencyChange><Frequency dt:dt=""r8"">2923076</Frequency><Timestamp dt:dt=""r8"">733902014135</Timestamp><Current dt:dt=""r8"">0</Current><DateUtc dt:dt=""string"">2017-07-10T14:36:19Z</DateUtc></FrequencyChange></FrequencyChanges></Clock>\n",60.003,1,-536831884,07-10-2017,09:36:19,2:36:19 PM,10,A180714_2T.wav,The ORANGE was VERY SWEET.   ,2Talker,TypeSPINProc,StimList,the{SPACE}orange{SPACE}is{SPACE}{ESCAPE},7542,171440,14,1,10
SPIN,2006,1,"<?xml version=""1.0""?>\n<Clock xmlns:dt=""urn:schemas-microsoft-com:datatypes""><Description dt:dt=""string"">E-Prime Primary Realtime Clock</Description><StartTime><Timestamp dt:dt=""int"">0</Timestamp><DateUtc dt:dt=""string"">2017-07-10T14:36:19Z</DateUtc></StartTime><FrequencyChanges><FrequencyChange><Frequency dt:dt=""r8"">2923076</Frequency><Timestamp dt:dt=""r8"">733902014135</Timestamp><Current dt:dt=""r8"">0</Current><DateUtc dt:dt=""string"">2017-07-10T14:36:19Z</DateUtc></FrequencyChange></FrequencyChanges></Clock>\n",60.003,1,-536831884,07-10-2017,09:36:19,2:36:19 PM,11,A181512_1T.wav,The DAUGHTER SET the TABLE.   ,1T,TypeSPINProc,StimList,{SHIFT}Her{SPACE}daughter{SPACE}set{SPACE}the{SPACE}table{ESCAPE},30831,202646,60,1,11
SPIN,2006,1,"<?xml version=""1.0""?>\n<Clock xmlns:dt=""urn:schemas-microsoft-com:datatypes""><Description dt:dt=""string"">E-Prime Primary Realtime Clock</Description><StartTime><Timestamp dt:dt=""int"">0</Timestamp><DateUtc dt:dt=""string"">2017-07-10T14:36:19Z</DateUtc></StartTime><FrequencyChanges><FrequencyChange><Frequency dt:dt=""r8"">2923076</Frequency><Timestamp dt:dt=""r8"">733902014135</Timestamp><Current dt:dt=""r8"">0</Current><DateUtc dt:dt=""string"">2017-07-10T14:36:19Z</DateUtc></FrequencyChange></FrequencyChanges></Clock>\n",60.003,1,-536831884,07-10-2017,09:36:19,2:36:19 PM,12,A181502_1T.wav,The OVEN is TOO HOT.,1T,TypeSPINProc,StimList,the{SPACE}oven{SPACE}is{SPACE}too{SPACE}hot{ESCAPE},7194,210174,50,1,12
SPIN,2006,1,"<?xml version=""1.0""?>\n<Clock xmlns:dt=""urn:schemas-microsoft-com:datatypes""><Description dt:dt=""string"">E-Prime Primary Realtime Clock</Description><StartTime><Timestamp dt:dt=""int"">0</Timestamp><DateUtc dt:dt=""string"">2017-07-10T14:36:19Z</DateUtc></StartTime><FrequencyChanges><FrequencyChange><Frequency dt:dt=""r8"">2923076</Frequency><Timestamp dt:dt=""r8"">733902014135</Timestamp><Current dt:dt=""r8"">0</Current><DateUtc dt:dt=""string"">2017-07-10T14:36:19Z</DateUtc></FrequencyChange></FrequencyChanges></Clock>\n",60.003,1,-536831884,07-10-2017,09:36:19,2:36:19 PM,13,A180904_8T.wav,SHE STOOD near her WINDOW.   ,8Talker,TypeSPINProc,StimList,she{SPACE}{ESCAPE},4848,215310,20,1,13
SPIN,2006,1,"<?xml version=""1.0""?>\n<Clock xmlns:dt=""urn:schemas-microsoft-com:datatypes""><Description dt:dt=""string"">E-Prime Primary Realtime Clock</Description><StartTime><Timestamp dt:dt=""int"">0</Timestamp><DateUtc dt:dt=""string"">2017-07-10T14:36:19Z</DateUtc></StartTime><FrequencyChanges><FrequencyChange><Frequency dt:dt=""r8"">2923076</Frequency><Timestamp dt:dt=""r8"">733902014135</Timestamp><Current dt:dt=""r8"">0</Current><DateUtc dt:dt=""string"">2017-07-10T14:36:19Z</DateUtc></FrequencyChange></FrequencyChanges></Clock>\n",60.003,1,-536831884,07-10-2017,09:36:19,2:36:19 PM,14,A181509_1T.wav,THEY MET SOME FRIENDS.   ,1T,TypeSPINProc,StimList,{SHIFT}{SHIFT}She{SPACE}has{SPACE}some{SPACE}friends{ESCAPE},9981,225877,57,1,14
SPIN,2006,1,"<?xml version=""1.0""?>\n<Clock xmlns:dt=""urn:schemas-microsoft-com:datatypes""><Description dt:dt=""string"">E-Prime Primary Realtime Clock</Description><StartTime><Timestamp dt:dt=""int"">0</Timestamp><DateUtc dt:dt=""string"">2017-07-10T14:36:19Z</DateUtc></StartTime><FrequencyChanges><FrequencyChange><Frequency dt:dt=""r8"">2923076</Frequency><Timestamp dt:dt=""r8"">733902014135</Timestamp><Current dt:dt=""r8"">0</Current><DateUtc dt:dt=""string"">2017-07-10T14:36:19Z</DateUtc></FrequencyChange></FrequencyChanges></Clock>\n",60.003,1,-536831884,07-10-2017,09:36:19,2:36:19 PM,15,A180707_2T.wav,THEY WASHED in COLD WATER.   ,2Talker,TypeSPINProc,StimList,cold{SPACE}water{ESCAPE},5153,231381,7,1,15
SPIN,2006,1,"<?xml version=""1.0""?>\n<Clock xmlns:dt=""urn:schemas-microsoft-com:datatypes""><Description dt:dt=""string"">E-Prime Primary Realtime Clock</Description><StartTime><Timestamp dt:dt=""int"">0</Timestamp><DateUtc dt:dt=""string"">2017-07-10T14:36:19Z</DateUtc></StartTime><FrequencyChanges><FrequencyChange><Frequency dt:dt=""r8"">2923076</Frequency><Timestamp dt:dt=""r8"">733902014135</Timestamp><Current dt:dt=""r8"">0</Current><DateUtc dt:dt=""string"">2017-07-10T14:36:19Z</DateUtc></FrequencyChange></FrequencyChanges></Clock>\n",60.003,1,-536831884,07-10-2017,09:36:19,2:36:19 PM,16,A180914_8T.wav,The TRAIN is MOVING FAST.   ,SSN,TypeSPINProc,StimList,the{SPACE}train{SPACE}just{SPACE}passed{ESCAPE},13914,245692,30,1,16
SPIN,2006,1,"<?xml version=""1.0""?>\n<Clock xmlns:dt=""urn:schemas-microsoft-com:datatypes""><Description dt:dt=""string"">E-Prime Primary Realtime Clock</Description><StartTime><Timestamp dt:dt=""int"">0</Timestamp><DateUtc dt:dt=""string"">2017-07-10T14:36:19Z</DateUtc></StartTime><FrequencyChanges><FrequencyChange><Frequency dt:dt=""r8"">2923076</Frequency><Timestamp dt:dt=""r8"">733902014135</Timestamp><Current dt:dt=""r8"">0</Current><DateUtc dt:dt=""string"">2017-07-10T14:36:19Z</DateUtc></FrequencyChange></FrequencyChanges></Clock>\n",60.003,1,-536831884,07-10-2017,09:36:19,2:36:19 PM,17,A181010_SSN.wav,THEY are RIDING their BICYCLES.   ,SSN,TypeSPINProc,StimList,they{SPACE}are{SPACE}writing{SPACE}the{SPACE}recipes{ESCAPE},12688,258699,42,1,17
SPIN,2006,1,"<?xml version=""1.0""?>\n<Clock xmlns:dt=""urn:schemas-microsoft-com:datatypes""><Description dt:dt=""string"">E-Prime Primary Realtime Clock</Description><StartTime><Timestamp dt:dt=""int"">0</Timestamp><DateUtc dt:dt=""string"">2017-07-10T14:36:19Z</DateUtc></StartTime><FrequencyChanges><FrequencyChange><Frequency dt:dt=""r8"">2923076</Frequency><Timestamp dt:dt=""r8"">733902014135</Timestamp><Current dt:dt=""r8"">0</Current><DateUtc dt:dt=""string"">2017-07-10T14:36:19Z</DateUtc></FrequencyChange></FrequencyChanges></Clock>\n",60.003,1,-536831884,07-10-2017,09:36:19,2:36:19 PM,18,A180915_8T.wav,The CHILD DRANK some MILK.   ,SSN,TypeSPINProc,StimList,the{SPACE}child{SPACE}drinks{SPACE}x{ESCAPE},10040,269483,31,1,18
SPIN,2006,1,"<?xml version=""1.0""?>\n<Clock xmlns:dt=""urn:schemas-microsoft-com:datatypes""><Description dt:dt=""string"">E-Prime Primary Realtime Clock</Description><StartTime><Timestamp dt:dt=""int"">0</Timestamp><DateUtc dt:dt=""string"">2017-07-10T14:36:19Z</DateUtc></StartTime><FrequencyChanges><FrequencyChange><Frequency dt:dt=""r8"">2923076</Frequency><Timestamp dt:dt=""r8"">733902014135</Timestamp><Current dt:dt=""r8"">0</Current><DateUtc dt:dt=""string"">2017-07-10T14:36:19Z</DateUtc></FrequencyChange></FrequencyChanges></Clock>\n",60.003,1,-536831884,07-10-2017,09:36:19,2:36:19 PM,19,A180908_8T.wav,HE LISTENED TO his FATHER.   ,SSN,TypeSPINProc,StimList,{SHIFT}He{SPACE}listens{SPACE}to{SPACE}his{SPACE}father{ESCAPE},18200,288026,24,1,19
SPIN,2006,1,"<?xml version=""1.0""?>\n<Clock xmlns:dt=""urn:schemas-microsoft-com:datatypes""><Description dt:dt=""string"">E-Prime Primary Realtime Clock</Description><StartTime><Timestamp dt:dt=""int"">0</Timestamp><DateUtc dt:dt=""string"">2017-07-10T14:36:19Z</DateUtc></StartTime><FrequencyChanges><FrequencyChange><Frequency dt:dt=""r8"">2923076</Frequency><Timestamp dt:dt=""r8"">733902014135</Timestamp><Current dt:dt=""r8"">0</Current><DateUtc dt:dt=""string"">2017-07-10T14:36:19Z</DateUtc></FrequencyChange></FrequencyChanges></Clock>\n",60.003,1,-536831884,07-10-2017,09:36:19,2:36:19 PM,20,A181011_SSN.wav,HE BROKE his LEG.   ,SSN,TypeSPINProc,StimList,{SHIFT}The{SPACE}girls{SPACE}has{SPACE}left{ESCAPE},10920,299345,43,1,20
SPIN,2006,1,"<?xml version=""1.0""?>\n<Clock xmlns:dt=""urn:schemas-microsoft-com:datatypes""><Description dt:dt=""string"">E-Prime Primary Realtime Clock</Description><StartTime><Timestamp dt:dt=""int"">0</Timestamp><DateUtc dt:dt=""string"">2017-07-10T14:36:19Z</DateUtc></StartTime><FrequencyChanges><FrequencyChange><Frequency dt:dt=""r8"">2923076</Frequency><Timestamp dt:dt=""r8"">733902014135</Timestamp><Current dt:dt=""r8"">0</Current><DateUtc dt:dt=""string"">2017-07-10T14:36:19Z</DateUtc></FrequencyChange></FrequencyChanges></Clock>\n",60.003,1,-536831884,07-10-2017,09:36:19,2:36:19 PM,21,A181002_SSN.wav,The JANITOR USED a BROOM.   ,SSN,TypeSPINProc,StimList,{SHIFT}The{SPACE}genetor{SPACE}x{SPACE}broo{ESCAPE},24430,324688,34,1,21
SPIN,2006,1,"<?xml version=""1.0""?>\n<Clock xmlns:dt=""urn:schemas-microsoft-com:datatypes""><Description dt:dt=""string"">E-Prime Primary Realtime Clock</Description><StartTime><Timestamp dt:dt=""int"">0</Timestamp><DateUtc dt:dt=""string"">2017-07-10T14:36:19Z</DateUtc></StartTime><FrequencyChanges><FrequencyChange><Frequency dt:dt=""r8"">2923076</Frequency><Timestamp dt:dt=""r8"">733902014135</Timestamp><Current dt:dt=""r8"">0</Current><DateUtc dt:dt=""string"">2017-07-10T14:36:19Z</DateUtc></FrequencyChange></FrequencyChanges></Clock>\n",60.003,1,-536831884,07-10-2017,09:36:19,2:36:19 PM,22,A181501_1T.wav,A MAN is TURNING the FAUCET.   ,1T,TypeSPINProc,StimList,{SHIFT}The{SPACE}manager{SPACE}turned{SPACE}the{SPACE}forces{ESCAPE},19595,344535,49,1,22
SPIN,2006,1,"<?xml version=""1.0""?>\n<Clock xmlns:dt=""urn:schemas-microsoft-com:datatypes""><Description dt:dt=""string"">E-Prime Primary Realtime Clock</Description><StartTime><Timestamp dt:dt=""int"">0</Timestamp><DateUtc dt:dt=""string"">2017-07-10T14:36:19Z</DateUtc></StartTime><FrequencyChanges><FrequencyChange><Frequency dt:dt=""r8"">2923076</Frequency><Timestamp dt:dt=""r8"">733902014135</Timestamp><Current dt:dt=""r8"">0</Current><DateUtc dt:dt=""string"">2017-07-10T14:36:19Z</DateUtc></FrequencyChange></FrequencyChanges></Clock>\n",60.003,1,-536831884,07-10-2017,09:36:19,2:36:19 PM,23,A181005_SSN.wav,THEY FOLLOWED the PATH.   ,SSN,TypeSPINProc,StimList,{SHIFT}He{SPACE}calls{SPACE}the{SPACE}px{ESCAPE},15330,360502,37,1,23
SPIN,2006,1,"<?xml version=""1.0""?>\n<Clock xmlns:dt=""urn:schemas-microsoft-com:datatypes""><Description dt:dt=""string"">E-Prime Primary Realtime Clock</Description><StartTime><Timestamp dt:dt=""int"">0</Timestamp><DateUtc dt:dt=""string"">2017-07-10T14:36:19Z</DateUtc></StartTime><FrequencyChanges><FrequencyChange><Frequency dt:dt=""r8"">2923076</Frequency><Timestamp dt:dt=""r8"">733902014135</Timestamp><Current dt:dt=""r8"">0</Current><DateUtc dt:dt=""string"">2017-07-10T14:36:19Z</DateUtc></FrequencyChange></FrequencyChanges></Clock>\n",60.003,1,-536831884,07-10-2017,09:36:19,2:36:19 PM,24,A180913_8T.wav,The DINNER PLATE is HOT.   ,SSN,TypeSPINProc,StimList,the{SPACE}plate{SPACE}is{SPACE}hot{ESCAPE},11478,372949,29,1,24
SPIN,2006,1,"<?xml version=""1.0""?>\n<Clock xmlns:dt=""urn:schemas-microsoft-com:datatypes""><Description dt:dt=""string"">E-Prime Primary Realtime Clock</Description><StartTime><Timestamp dt:dt=""int"">0</Timestamp><DateUtc dt:dt=""string"">2017-07-10T14:36:19Z</DateUtc></StartTime><FrequencyChanges><FrequencyChange><Frequency dt:dt=""r8"">2923076</Frequency><Timestamp dt:dt=""r8"">733902014135</Timestamp><Current dt:dt=""r8"">0</Current><DateUtc dt:dt=""string"">2017-07-10T14:36:19Z</DateUtc></FrequencyChange></FrequencyChanges></Clock>\n",60.003,1,-536831884,07-10-2017,09:36:19,2:36:19 PM,25,A180716_2T.wav,The NEW ROAD is on the MAP.   ,2Talker,TypeSPINProc,StimList,new{SPACE}road{SPACE}has{SPACE}been{SPACE}built{ESCAPE},13349,387053,16,1,25
SPIN,2006,1,"<?xml version=""1.0""?>\n<Clock xmlns:dt=""urn:schemas-microsoft-com:datatypes""><Description dt:dt=""string"">E-Prime Primary Realtime Clock</Description><StartTime><Timestamp dt:dt=""int"">0</Timestamp><DateUtc dt:dt=""string"">2017-07-10T14:36:19Z</DateUtc></StartTime><FrequencyChanges><FrequencyChange><Frequency dt:dt=""r8"">2923076</Frequency><Timestamp dt:dt=""r8"">733902014135</Timestamp><Current dt:dt=""r8"">0</Current><DateUtc dt:dt=""string"">2017-07-10T14:36:19Z</DateUtc></FrequencyChange></FrequencyChanges></Clock>\n",60.003,1,-536831884,07-10-2017,09:36:19,2:36:19 PM,26,A181008_SSN.wav,SOMEONE is CROSSING the ROAD.   ,SSN,TypeSPINProc,StimList,someone{SPACE}is{SPACE}crossing{SPACE}the{SPACE}road{ESCAPE},9507,397460,40,1,26
SPIN,2006,1,"<?xml version=""1.0""?>\n<Clock xmlns:dt=""urn:schemas-microsoft-com:datatypes""><Description dt:dt=""string"">E-Prime Primary Realtime Clock</Description><StartTime><Timestamp dt:dt=""int"">0</Timestamp><DateUtc dt:dt=""string"">2017-07-10T14:36:19Z</DateUtc></StartTime><FrequencyChanges><FrequencyChange><Frequency dt:dt=""r8"">2923076</Frequency><Timestamp dt:dt=""r8"">733902014135</Timestamp><Current dt:dt=""r8"">0</Current><DateUtc dt:dt=""string"">2017-07-10T14:36:19Z</DateUtc></FrequencyChange></FrequencyChanges></Clock>\n",60.003,1,-536831884,07-10-2017,09:36:19,2:36:19 PM,27,A180711_2T.wav,The BALL is BOUNCING very HIGH.   ,2Talker,TypeSPINProc,StimList,the{SPACE}ball{SPACE}{ESCAPE},7339,405108,11,1,27
SPIN,2006,1,"<?xml version=""1.0""?>\n<Clock xmlns:dt=""urn:schemas-microsoft-com:datatypes""><Description dt:dt=""string"">E-Prime Primary Realtime Clock</Description><StartTime><Timestamp dt:dt=""int"">0</Timestamp><DateUtc dt:dt=""string"">2017-07-10T14:36:19Z</DateUtc></StartTime><FrequencyChanges><FrequencyChange><Frequency dt:dt=""r8"">2923076</Frequency><Timestamp dt:dt=""r8"">733902014135</Timestamp><Current dt:dt=""r8"">0</Current><DateUtc dt:dt=""string"">2017-07-10T14:36:19Z</DateUtc></FrequencyChange></FrequencyChanges></Clock>\n",60.003,1,-536831884,07-10-2017,09:36:19,2:36:19 PM,28,A180709_2T.wav,The BUS LEFT EARLY.   ,2Talker,TypeSPINProc,StimList,xx{ESCAPE},7587,413339,9,1,28
SPIN,2006,1,"<?xml version=""1.0""?>\n<Clock xmlns:dt=""urn:schemas-microsoft-com:datatypes""><Description dt:dt=""string"">E-Prime Primary Realtime Clock</Description><StartTime><Timestamp dt:dt=""int"">0</Timestamp><DateUtc dt:dt=""string"">2017-07-10T14:36:19Z</DateUtc></StartTime><FrequencyChanges><FrequencyChange><Frequency dt:dt=""r8"">2923076</Frequency><Timestamp dt:dt=""r8"">733902014135</Timestamp><Current dt:dt=""r8"">0</Current><DateUtc dt:dt=""string"">2017-07-10T14:36:19Z</DateUtc></FrequencyChange></FrequencyChanges></Clock>\n",60.003,1,-536831884,07-10-2017,09:36:19,2:36:19 PM,29,A181511_1T.wav,The TINY BABY was PRETTY.   ,1T,TypeSPINProc,StimList,the{SPACE}tiny{SPACE}baby{SPACE}is{SPACE}de{SPACE}pressed{ESCAPE},24460,438762,59,1,29
SPIN,2006,1,"<?xml version=""1.0""?>\n<Clock xmlns:dt=""urn:schemas-microsoft-com:datatypes""><Description dt:dt=""string"">E-Prime Primary Realtime Clock</Description><StartTime><Timestamp dt:dt=""int"">0</Timestamp><DateUtc dt:dt=""string"">2017-07-10T14:36:19Z</DateUtc></StartTime><FrequencyChanges><FrequencyChange><Frequency dt:dt=""r8"">2923076</Frequency><Timestamp dt:dt=""r8"">733902014135</Timestamp><Current dt:dt=""r8"">0</Current><DateUtc dt:dt=""string"">2017-07-10T14:36:19Z</DateUtc></FrequencyChange></FrequencyChanges></Clock>\n",60.003,1,-536831884,07-10-2017,09:36:19,2:36:19 PM,30,A180710_2T.wav,THEY had TWO EMPTY BOTTLES.   ,2Talker,TypeSPINProc,StimList,they{SPACE}have{SPACE}two{SPACE}ash{SPACE}bottles{ESCAPE},13165,452865,10,1,30
SPIN,2006,1,"<?xml version=""1.0""?>\n<Clock xmlns:dt=""urn:schemas-microsoft-com:datatypes""><Description dt:dt=""string"">E-Prime Primary Realtime Clock</Description><StartTime><Timestamp dt:dt=""int"">0</Timestamp><DateUtc dt:dt=""string"">2017-07-10T14:36:19Z</DateUtc></StartTime><FrequencyChanges><FrequencyChange><Frequency dt:dt=""r8"">2923076</Frequency><Timestamp dt:dt=""r8"">733902014135</Timestamp><Current dt:dt=""r8"">0</Current><DateUtc dt:dt=""string"">2017-07-10T14:36:19Z</DateUtc></FrequencyChange></FrequencyChanges></Clock>\n",60.003,1,-536831884,07-10-2017,09:36:19,2:36:19 PM,31,A180706_2T.wav,MOTHER GOT a SAUCEPAN.,2Talker,TypeSPINProc,StimList,my{SPACE}mother{ESCAPE},6411,459561,6,1,31
SPIN,2006,1,"<?xml version=""1.0""?>\n<Clock xmlns:dt=""urn:schemas-microsoft-com:datatypes""><Description dt:dt=""string"">E-Prime Primary Realtime Clock</Description><StartTime><Timestamp dt:dt=""int"">0</Timestamp><DateUtc dt:dt=""string"">2017-07-10T14:36:19Z</DateUtc></StartTime><FrequencyChanges><FrequencyChange><Frequency dt:dt=""r8"">2923076</Frequency><Timestamp dt:dt=""r8"">733902014135</Timestamp><Current dt:dt=""r8"">0</Current><DateUtc dt:dt=""string"">2017-07-10T14:36:19Z</DateUtc></FrequencyChange></FrequencyChanges></Clock>\n",60.003,1,-536831884,07-10-2017,09:36:19,2:36:19 PM,32,A181016_SSN.wav,The CHICKEN LAID some EGGS.   ,SSN,TypeSPINProc,StimList,the{SPACE}chicken{SPACE}laid{SPACE}eggs{ESCAPE},12255,472104,48,1,32
SPIN,2006,1,"<?xml version=""1.0""?>\n<Clock xmlns:dt=""urn:schemas-microsoft-com:datatypes""><Description dt:dt=""string"">E-Prime Primary Realtime Clock</Description><StartTime><Timestamp dt:dt=""int"">0</Timestamp><DateUtc dt:dt=""string"">2017-07-10T14:36:19Z</DateUtc></StartTime><FrequencyChanges><FrequencyChange><Frequency dt:dt=""r8"">2923076</Frequency><Timestamp dt:dt=""r8"">733902014135</Timestamp><Current dt:dt=""r8"">0</Current><DateUtc dt:dt=""string"">2017-07-10T14:36:19Z</DateUtc></FrequencyChange></FrequencyChanges></Clock>\n",60.003,1,-536831884,07-10-2017,09:36:19,2:36:19 PM,33,A180701_2T.wav,The CHILDREN DROPPED the BAG,2Talker,TypeSPINProc,StimList,the{SPACE}children{SPACE}are{SPACE}dropping{SPACE}the{SPACE}bags{ESCAPE},15919,488351,1,1,33
SPIN,2006,1,"<?xml version=""1.0""?>\n<Clock xmlns:dt=""urn:schemas-microsoft-com:datatypes""><Description dt:dt=""string"">E-Prime Primary Realtime Clock</Description><StartTime><Timestamp dt:dt=""int"">0</Timestamp><DateUtc dt:dt=""string"">2017-07-10T14:36:19Z</DateUtc></StartTime><FrequencyChanges><FrequencyChange><Frequency dt:dt=""r8"">2923076</Frequency><Timestamp dt:dt=""r8"">733902014135</Timestamp><Current dt:dt=""r8"">0</Current><DateUtc dt:dt=""string"">2017-07-10T14:36:19Z</DateUtc></FrequencyChange></FrequencyChanges></Clock>\n",60.003,1,-536831884,07-10-2017,09:36:19,2:36:19 PM,34,A180702_2T.wav,The DOG CAME BACK.   ,2Talker,TypeSPINProc,StimList,the{SPACE}dog{SPACE}come{SPACE}by{ESCAPE},10135,498799,2,1,34
SPIN,2006,1,"<?xml version=""1.0""?>\n<Clock xmlns:dt=""urn:schemas-microsoft-com:datatypes""><Description dt:dt=""string"">E-Prime Primary Realtime Clock</Description><StartTime><Timestamp dt:dt=""int"">0</Timestamp><DateUtc dt:dt=""string"">2017-07-10T14:36:19Z</DateUtc></StartTime><FrequencyChanges><FrequencyChange><Frequency dt:dt=""r8"">2923076</Frequency><Timestamp dt:dt=""r8"">733902014135</Timestamp><Current dt:dt=""r8"">0</Current><DateUtc dt:dt=""string"">2017-07-10T14:36:19Z</DateUtc></FrequencyChange></FrequencyChanges></Clock>\n",60.003,1,-536831884,07-10-2017,09:36:19,2:36:19 PM,35,A180905_8T.wav,The TABLE has THREE LEGS.   ,SSN,TypeSPINProc,StimList,the{SPACE}table{SPACE}has{SPACE}three{SPACE}legs{ESCAPE},13866,513030,21,1,35
SPIN,2006,1,"<?xml version=""1.0""?>\n<Clock xmlns:dt=""urn:schemas-microsoft-com:datatypes""><Description dt:dt=""string"">E-Prime Primary Realtime Clock</Description><StartTime><Timestamp dt:dt=""int"">0</Timestamp><DateUtc dt:dt=""string"">2017-07-10T14:36:19Z</DateUtc></StartTime><FrequencyChanges><FrequencyChange><Frequency dt:dt=""r8"">2923076</Frequency><Timestamp dt:dt=""r8"">733902014135</Timestamp><Current dt:dt=""r8"">0</Current><DateUtc dt:dt=""string"">2017-07-10T14:36:19Z</DateUtc></FrequencyChange></FrequencyChanges></Clock>\n",60.003,1,-536831884,07-10-2017,09:36:19,2:36:19 PM,36,A181516_1T.wav,The PUPPY PLAYS with a BALL.   ,1T,TypeSPINProc,StimList,the{SPACE}popy{SPACE}plays{SPACE}the{SPACE}ball{ESCAPE},11913,525309,64,1,36
SPIN,2006,1,"<?xml version=""1.0""?>\n<Clock xmlns:dt=""urn:schemas-microsoft-com:datatypes""><Description dt:dt=""string"">E-Prime Primary Realtime Clock</Description><StartTime><Timestamp dt:dt=""int"">0</Timestamp><DateUtc dt:dt=""string"">2017-07-10T14:36:19Z</DateUtc></StartTime><FrequencyChanges><FrequencyChange><Frequency dt:dt=""r8"">2923076</Frequency><Timestamp dt:dt=""r8"">733902014135</Timestamp><Current dt:dt=""r8"">0</Current><DateUtc dt:dt=""string"">2017-07-10T14:36:19Z</DateUtc></FrequencyChange></FrequencyChanges></Clock>\n",60.003,1,-536831884,07-10-2017,09:36:19,2:36:19 PM,37,A181515_1T.wav,The TRAIN STOPS at the STATION.   ,1T,TypeSPINProc,StimList,the{SPACE}train{SPACE}stops{SPACE}at{SPACE}the{SPACE}station{ESCAPE},16847,542476,63,1,37
SPIN,2006,1,"<?xml version=""1.0""?>\n<Clock xmlns:dt=""urn:schemas-microsoft-com:datatypes""><Description dt:dt=""string"">E-Prime Primary Realtime Clock</Description><StartTime><Timestamp dt:dt=""int"">0</Timestamp><DateUtc dt:dt=""string"">2017-07-10T14:36:19Z</DateUtc></StartTime><FrequencyChanges><FrequencyChange><Frequency dt:dt=""r8"">2923076</Frequency><Timestamp dt:dt=""r8"">733902014135</Timestamp><Current dt:dt=""r8"">0</Current><DateUtc dt:dt=""string"">2017-07-10T14:36:19Z</DateUtc></FrequencyChange></FrequencyChanges></Clock>\n",60.003,1,-536831884,07-10-2017,09:36:19,2:36:19 PM,38,A181012_SSN.wav,The MILK was by the FRONT DOOR.   ,SSN,TypeSPINProc,StimList,the{SPACE}notexxx{ESCAPE},7136,549964,44,1,38
SPIN,2006,1,"<?xml version=""1.0""?>\n<Clock xmlns:dt=""urn:schemas-microsoft-com:datatypes""><Description dt:dt=""string"">E-Prime Primary Realtime Clock</Description><StartTime><Timestamp dt:dt=""int"">0</Timestamp><DateUtc dt:dt=""string"">2017-07-10T14:36:19Z</DateUtc></StartTime><FrequencyChanges><FrequencyChange><Frequency dt:dt=""r8"">2923076</Frequency><Timestamp dt:dt=""r8"">733902014135</Timestamp><Current dt:dt=""r8"">0</Current><DateUtc dt:dt=""string"">2017-07-10T14:36:19Z</DateUtc></FrequencyChange></FrequencyChanges></Clock>\n",60.003,1,-536831884,07-10-2017,09:36:19,2:36:19 PM,39,A181513_1T.wav,THEY WALKED ACROSS the GRASS.   ,1T,TypeSPINProc,StimList,they{SPACE}walk{SPACE}across{SPACE}the{SPACE}gr{INSERT}ass{ESCAPE},12337,563115,61,1,39
SPIN,2006,1,"<?xml version=""1.0""?>\n<Clock xmlns:dt=""urn:schemas-microsoft-com:datatypes""><Description dt:dt=""string"">E-Prime Primary Realtime Clock</Description><StartTime><Timestamp dt:dt=""int"">0</Timestamp><DateUtc dt:dt=""string"">2017-07-10T14:36:19Z</DateUtc></StartTime><FrequencyChanges><FrequencyChange><Frequency dt:dt=""r8"">2923076</Frequency><Timestamp dt:dt=""r8"">733902014135</Timestamp><Current dt:dt=""r8"">0</Current><DateUtc dt:dt=""string"">2017-07-10T14:36:19Z</DateUtc></FrequencyChange></FrequencyChanges></Clock>\n",60.003,1,-536831884,07-10-2017,09:36:19,2:36:19 PM,40,A180910_8T.wav,THEY WENT on a VACATION.   ,SSN,TypeSPINProc,StimList,they{SPACE}went{SPACE}on{SPACE}vacation{ESCAPE},8241,571651,26,1,40
SPIN,2006,1,"<?xml version=""1.0""?>\n<Clock xmlns:dt=""urn:schemas-microsoft-com:datatypes""><Description dt:dt=""string"">E-Prime Primary Realtime Clock</Description><StartTime><Timestamp dt:dt=""int"">0</Timestamp><DateUtc dt:dt=""string"">2017-07-10T14:36:19Z</DateUtc></StartTime><FrequencyChanges><FrequencyChange><Frequency dt:dt=""r8"">2923076</Frequency><Timestamp dt:dt=""r8"">733902014135</Timestamp><Current dt:dt=""r8"">0</Current><DateUtc dt:dt=""string"">2017-07-10T14:36:19Z</DateUtc></FrequencyChange></FrequencyChanges></Clock>\n",60.003,1,-536831884,07-10-2017,09:36:19,2:36:19 PM,41,A181006_SSN.wav,The KITCHEN CLOCK was WRONG.   ,SSN,TypeSPINProc,StimList,the{SPACE}kitchen{SPACE}x{SPACE}is{SPACE}brocken{ESCAPE},23471,595498,38,1,41
SPIN,2006,1,"<?xml version=""1.0""?>\n<Clock xmlns:dt=""urn:schemas-microsoft-com:datatypes""><Description dt:dt=""string"">E-Prime Primary Realtime Clock</Description><StartTime><Timestamp dt:dt=""int"">0</Timestamp><DateUtc dt:dt=""string"">2017-07-10T14:36:19Z</DateUtc></StartTime><FrequencyChanges><FrequencyChange><Frequency dt:dt=""r8"">2923076</Frequency><Timestamp dt:dt=""r8"">733902014135</Timestamp><Current dt:dt=""r8"">0</Current><DateUtc dt:dt=""string"">2017-07-10T14:36:19Z</DateUtc></FrequencyChange></FrequencyChanges></Clock>\n",60.003,1,-536831884,07-10-2017,09:36:19,2:36:19 PM,42,A180713_2T.wav,The GIRL has a PICTURE BOOK.   ,2Talker,TypeSPINProc,StimList,the{SPACE}gril{SPACE}has{SPACE}a{SPACE}picture{INSERT}{SPACE}of{SPACE}{ESCAPE},11695,607537,13,1,42
SPIN,2006,1,"<?xml version=""1.0""?>\n<Clock xmlns:dt=""urn:schemas-microsoft-com:datatypes""><Description dt:dt=""string"">E-Prime Primary Realtime Clock</Description><StartTime><Timestamp dt:dt=""int"">0</Timestamp><DateUtc dt:dt=""string"">2017-07-10T14:36:19Z</DateUtc></StartTime><FrequencyChanges><FrequencyChange><Frequency dt:dt=""r8"">2923076</Frequency><Timestamp dt:dt=""r8"">733902014135</Timestamp><Current dt:dt=""r8"">0</Current><DateUtc dt:dt=""string"">2017-07-10T14:36:19Z</DateUtc></FrequencyChange></FrequencyChanges></Clock>\n",60.003,1,-536831884,07-10-2017,09:36:19,2:36:19 PM,43,A180703_2T.wav,The FLOOR LOOKED CLEAN. ,2Talker,TypeSPINProc,StimList,people{SPACE}on{SPACE}the{SPACE}board{SPACE}are{SPACE}cleaning{ESCAPE},17779,625920,3,1,43
SPIN,2006,1,"<?xml version=""1.0""?>\n<Clock xmlns:dt=""urn:schemas-microsoft-com:datatypes""><Description dt:dt=""string"">E-Prime Primary Realtime Clock</Description><StartTime><Timestamp dt:dt=""int"">0</Timestamp><DateUtc dt:dt=""string"">2017-07-10T14:36:19Z</DateUtc></StartTime><FrequencyChanges><FrequencyChange><Frequency dt:dt=""r8"">2923076</Frequency><Timestamp dt:dt=""r8"">733902014135</Timestamp><Current dt:dt=""r8"">0</Current><DateUtc dt:dt=""string"">2017-07-10T14:36:19Z</DateUtc></FrequencyChange></FrequencyChanges></Clock>\n",60.003,1,-536831884,07-10-2017,09:36:19,2:36:19 PM,44,A181003_SSN.wav,THEY SAT on a WOODEN BENCH.   ,SSN,TypeSPINProc,StimList,xxxx{ENTER}{ESCAPE},4390,631280,35,1,44
SPIN,2006,1,"<?xml version=""1.0""?>\n<Clock xmlns:dt=""urn:schemas-microsoft-com:datatypes""><Description dt:dt=""string"">E-Prime Primary Realtime Clock</Description><StartTime><Timestamp dt:dt=""int"">0</Timestamp><DateUtc dt:dt=""string"">2017-07-10T14:36:19Z</DateUtc></StartTime><FrequencyChanges><FrequencyChange><Frequency dt:dt=""r8"">2923076</Frequency><Timestamp dt:dt=""r8"">733902014135</Timestamp><Current dt:dt=""r8"">0</Current><DateUtc dt:dt=""string"">2017-07-10T14:36:19Z</DateUtc></FrequencyChange></FrequencyChanges></Clock>\n",60.003,1,-536831884,07-10-2017,09:36:19,2:36:19 PM,45,A180907_8T.wav,The FIVE MEN are WORKING.    ,8Talker,TypeSPINProc,StimList,five{SPACE}xx{SPACE}{ESCAPE},7517,639391,23,1,45
SPIN,2006,1,"<?xml version=""1.0""?>\n<Clock xmlns:dt=""urn:schemas-microsoft-com:datatypes""><Description dt:dt=""string"">E-Prime Primary Realtime Clock</Description><StartTime><Timestamp dt:dt=""int"">0</Timestamp><DateUtc dt:dt=""string"">2017-07-10T14:36:19Z</DateUtc></StartTime><FrequencyChanges><FrequencyChange><Frequency dt:dt=""r8"">2923076</Frequency><Timestamp dt:dt=""r8"">733902014135</Timestamp><Current dt:dt=""r8"">0</Current><DateUtc dt:dt=""string"">2017-07-10T14:36:19Z</DateUtc></FrequencyChange></FrequencyChanges></Clock>\n",60.003,1,-536831884,07-10-2017,09:36:19,2:36:19 PM,46,A180712_2T.wav,FATHER FORGOT the BREAD.   ,2Talker,TypeSPINProc,StimList,the{SPACE}father{SPACE}coat{ESCAPE},11058,650831,12,1,46
SPIN,2006,1,"<?xml version=""1.0""?>\n<Clock xmlns:dt=""urn:schemas-microsoft-com:datatypes""><Description dt:dt=""string"">E-Prime Primary Realtime Clock</Description><StartTime><Timestamp dt:dt=""int"">0</Timestamp><DateUtc dt:dt=""string"">2017-07-10T14:36:19Z</DateUtc></StartTime><FrequencyChanges><FrequencyChange><Frequency dt:dt=""r8"">2923076</Frequency><Timestamp dt:dt=""r8"">733902014135</Timestamp><Current dt:dt=""r8"">0</Current><DateUtc dt:dt=""string"">2017-07-10T14:36:19Z</DateUtc></FrequencyChange></FrequencyChanges></Clock>\n",60.003,1,-536831884,07-10-2017,09:36:19,2:36:19 PM,47,A180911_8T.wav,The BABY BROKE his CUP.   ,8Talker,TypeSPINProc,StimList,xx{ESCAPE},8210,659966,27,1,47
SPIN,2006,1,"<?xml version=""1.0""?>\n<Clock xmlns:dt=""urn:schemas-microsoft-com:datatypes""><Description dt:dt=""string"">E-Prime Primary Realtime Clock</Description><StartTime><Timestamp dt:dt=""int"">0</Timestamp><DateUtc dt:dt=""string"">2017-07-10T14:36:19Z</DateUtc></StartTime><FrequencyChanges><FrequencyChange><Frequency dt:dt=""r8"">2923076</Frequency><Timestamp dt:dt=""r8"">733902014135</Timestamp><Current dt:dt=""r8"">0</Current><DateUtc dt:dt=""string"">2017-07-10T14:36:19Z</DateUtc></FrequencyChange></FrequencyChanges></Clock>\n",60.003,1,-536831884,07-10-2017,09:36:19,2:36:19 PM,48,A181505_1T.wav,The DRIVER STARTED the ENGINE.   ,1T,TypeSPINProc,StimList,the{SPACE}driver{SPACE}started{SPACE}the{SPACE}engine{ESCAPE},9604,670326,53,1,48
SPIN,2006,1,"<?xml version=""1.0""?>\n<Clock xmlns:dt=""urn:schemas-microsoft-com:datatypes""><Description dt:dt=""string"">E-Prime Primary Realtime Clock</Description><StartTime><Timestamp dt:dt=""int"">0</Timestamp><DateUtc dt:dt=""string"">2017-07-10T14:36:19Z</DateUtc></StartTime><FrequencyChanges><FrequencyChange><Frequency dt:dt=""r8"">2923076</Frequency><Timestamp dt:dt=""r8"">733902014135</Timestamp><Current dt:dt=""r8"">0</Current><DateUtc dt:dt=""string"">2017-07-10T14:36:19Z</DateUtc></FrequencyChange></FrequencyChanges></Clock>\n",60.003,1,-536831884,07-10-2017,09:36:19,2:36:19 PM,49,A180901_8T.wav,The BOOK TELLS a STORY.   ,8Talker,TypeSPINProc,StimList,xxx{ESCAPE},5139,675877,17,1,49
SPIN,2006,1,"<?xml version=""1.0""?>\n<Clock xmlns:dt=""urn:schemas-microsoft-com:datatypes""><Description dt:dt=""string"">E-Prime Primary Realtime Clock</Description><StartTime><Timestamp dt:dt=""int"">0</Timestamp><DateUtc dt:dt=""string"">2017-07-10T14:36:19Z</DateUtc></StartTime><FrequencyChanges><FrequencyChange><Frequency dt:dt=""r8"">2923076</Frequency><Timestamp dt:dt=""r8"">733902014135</Timestamp><Current dt:dt=""r8"">0</Current><DateUtc dt:dt=""string"">2017-07-10T14:36:19Z</DateUtc></FrequencyChange></FrequencyChanges></Clock>\n",60.003,1,-536831884,07-10-2017,09:36:19,2:36:19 PM,50,A180916_8T.wav,The CAR HIT a WALL.   ,SSN,TypeSPINProc,StimList,{SHIFT}{SHIFT}the{SPACE}car{SPACE}get{SPACE}pulled{ESCAPE},14797,691052,32,1,50
SPIN,2006,1,"<?xml version=""1.0""?>\n<Clock xmlns:dt=""urn:schemas-microsoft-com:datatypes""><Description dt:dt=""string"">E-Prime Primary Realtime Clock</Description><StartTime><Timestamp dt:dt=""int"">0</Timestamp><DateUtc dt:dt=""string"">2017-07-10T14:36:19Z</DateUtc></StartTime><FrequencyChanges><FrequencyChange><Frequency dt:dt=""r8"">2923076</Frequency><Timestamp dt:dt=""r8"">733902014135</Timestamp><Current dt:dt=""r8"">0</Current><DateUtc dt:dt=""string"">2017-07-10T14:36:19Z</DateUtc></FrequencyChange></FrequencyChanges></Clock>\n",60.003,1,-536831884,07-10-2017,09:36:19,2:36:19 PM,51,A180902_8T.wav,The YOUNG BOY LEFT HOME.   ,8Talker,TypeSPINProc,StimList,young{SPACE}boyxx{ESCAPE},11093,702380,18,1,51
SPIN,2006,1,"<?xml version=""1.0""?>\n<Clock xmlns:dt=""urn:schemas-microsoft-com:datatypes""><Description dt:dt=""string"">E-Prime Primary Realtime Clock</Description><StartTime><Timestamp dt:dt=""int"">0</Timestamp><DateUtc dt:dt=""string"">2017-07-10T14:36:19Z</DateUtc></StartTime><FrequencyChanges><FrequencyChange><Frequency dt:dt=""r8"">2923076</Frequency><Timestamp dt:dt=""r8"">733902014135</Timestamp><Current dt:dt=""r8"">0</Current><DateUtc dt:dt=""string"">2017-07-10T14:36:19Z</DateUtc></FrequencyChange></FrequencyChanges></Clock>\n",60.003,1,-536831884,07-10-2017,09:36:19,2:36:19 PM,52,A181510_1T.wav,The RAINCOAT is HANGING UP.  ,1T,TypeSPINProc,StimList,the{SPACE}rain{SPACE}coat{SPACE}is{SPACE}xx{SPACE}up{ESCAPE},11479,714699,58,1,52
SPIN,2006,1,"<?xml version=""1.0""?>\n<Clock xmlns:dt=""urn:schemas-microsoft-com:datatypes""><Description dt:dt=""string"">E-Prime Primary Realtime Clock</Description><StartTime><Timestamp dt:dt=""int"">0</Timestamp><DateUtc dt:dt=""string"">2017-07-10T14:36:19Z</DateUtc></StartTime><FrequencyChanges><FrequencyChange><Frequency dt:dt=""r8"">2923076</Frequency><Timestamp dt:dt=""r8"">733902014135</Timestamp><Current dt:dt=""r8"">0</Current><DateUtc dt:dt=""string"">2017-07-10T14:36:19Z</DateUtc></FrequencyChange></FrequencyChanges></Clock>\n",60.003,1,-536831884,07-10-2017,09:36:19,2:36:19 PM,53,A181015_SSN.wav,The BUCKETS HOLD WATER.   ,SSN,TypeSPINProc,StimList,the{SPACE}bucket{SPACE}xx{ESCAPE},10217,725619,47,1,53
SPIN,2006,1,"<?xml version=""1.0""?>\n<Clock xmlns:dt=""urn:schemas-microsoft-com:datatypes""><Description dt:dt=""string"">E-Prime Primary Realtime Clock</Description><StartTime><Timestamp dt:dt=""int"">0</Timestamp><DateUtc dt:dt=""string"">2017-07-10T14:36:19Z</DateUtc></StartTime><FrequencyChanges><FrequencyChange><Frequency dt:dt=""r8"">2923076</Frequency><Timestamp dt:dt=""r8"">733902014135</Timestamp><Current dt:dt=""r8"">0</Current><DateUtc dt:dt=""string"">2017-07-10T14:36:19Z</DateUtc></FrequencyChange></FrequencyChanges></Clock>\n",60.003,1,-536831884,07-10-2017,09:36:19,2:36:19 PM,54,A180715_2T.wav,HE is HOLDING his NOSE.   ,2Talker,TypeSPINProc,StimList,yellowxx{ESCAPE},8908,735210,15,1,54
SPIN,2006,1,"<?xml version=""1.0""?>\n<Clock xmlns:dt=""urn:schemas-microsoft-com:datatypes""><Description dt:dt=""string"">E-Prime Primary Realtime Clock</Description><StartTime><Timestamp dt:dt=""int"">0</Timestamp><DateUtc dt:dt=""string"">2017-07-10T14:36:19Z</DateUtc></StartTime><FrequencyChanges><FrequencyChange><Frequency dt:dt=""r8"">2923076</Frequency><Timestamp dt:dt=""r8"">733902014135</Timestamp><Current dt:dt=""r8"">0</Current><DateUtc dt:dt=""string"">2017-07-10T14:36:19Z</DateUtc></FrequencyChange></FrequencyChanges></Clock>\n",60.003,1,-536831884,07-10-2017,09:36:19,2:36:19 PM,55,A181013_SSN.wav,The SHIRTS are HANGING in the CLOSET.   ,SSN,TypeSPINProc,StimList,the{SPACE}shirts{SPACE}are{SPACE}hanging{SPACE}xx{ESCAPE},12738,748273,45,1,55
SPIN,2006,1,"<?xml version=""1.0""?>\n<Clock xmlns:dt=""urn:schemas-microsoft-com:datatypes""><Description dt:dt=""string"">E-Prime Primary Realtime Clock</Description><StartTime><Timestamp dt:dt=""int"">0</Timestamp><DateUtc dt:dt=""string"">2017-07-10T14:36:19Z</DateUtc></StartTime><FrequencyChanges><FrequencyChange><Frequency dt:dt=""r8"">2923076</Frequency><Timestamp dt:dt=""r8"">733902014135</Timestamp><Current dt:dt=""r8"">0</Current><DateUtc dt:dt=""string"">2017-07-10T14:36:19Z</DateUtc></FrequencyChange></FrequencyChanges></Clock>\n",60.003,1,-536831884,07-10-2017,09:36:19,2:36:19 PM,56,A181001_SSN.wav,A DISH TOWEL is by the SINK.   ,SSN,TypeSPINProc,StimList,the{SPACE}dish{SPACE}towel{SPACE}is{SPACE}by{SPACE}the{SPACE}sink{ESCAPE},19894,768728,33,1,56
SPIN,2006,1,"<?xml version=""1.0""?>\n<Clock xmlns:dt=""urn:schemas-microsoft-com:datatypes""><Description dt:dt=""string"">E-Prime Primary Realtime Clock</Description><StartTime><Timestamp dt:dt=""int"">0</Timestamp><DateUtc dt:dt=""string"">2017-07-10T14:36:19Z</DateUtc></StartTime><FrequencyChanges><FrequencyChange><Frequency dt:dt=""r8"">2923076</Frequency><Timestamp dt:dt=""r8"">733902014135</Timestamp><Current dt:dt=""r8"">0</Current><DateUtc dt:dt=""string"">2017-07-10T14:36:19Z</DateUtc></FrequencyChange></FrequencyChanges></Clock>\n",60.003,1,-536831884,07-10-2017,09:36:19,2:36:19 PM,57,A180708_2T.wav,The YOUNG PEOPLE are DANCING.,2Talker,TypeSPINProc,StimList,the{SPACE}young{SPACE}people{SPACE}are{SPACE}dancing{ESCAPE},10806,779872,8,1,57
SPIN,2006,1,"<?xml version=""1.0""?>\n<Clock xmlns:dt=""urn:schemas-microsoft-com:datatypes""><Description dt:dt=""string"">E-Prime Primary Realtime Clock</Description><StartTime><Timestamp dt:dt=""int"">0</Timestamp><DateUtc dt:dt=""string"">2017-07-10T14:36:19Z</DateUtc></StartTime><FrequencyChanges><FrequencyChange><Frequency dt:dt=""r8"">2923076</Frequency><Timestamp dt:dt=""r8"">733902014135</Timestamp><Current dt:dt=""r8"">0</Current><DateUtc dt:dt=""string"">2017-07-10T14:36:19Z</DateUtc></FrequencyChange></FrequencyChanges></Clock>\n",60.003,1,-536831884,07-10-2017,09:36:19,2:36:19 PM,58,A180704_2T.wav,SHE FOUND her PURSE.,2Talker,TypeSPINProc,StimList,she{SPACE}found{SPACE}her{SPACE}purse{ESCAPE},12971,793287,4,1,58
SPIN,2006,1,"<?xml version=""1.0""?>\n<Clock xmlns:dt=""urn:schemas-microsoft-com:datatypes""><Description dt:dt=""string"">E-Prime Primary Realtime Clock</Description><StartTime><Timestamp dt:dt=""int"">0</Timestamp><DateUtc dt:dt=""string"">2017-07-10T14:36:19Z</DateUtc></StartTime><FrequencyChanges><FrequencyChange><Frequency dt:dt=""r8"">2923076</Frequency><Timestamp dt:dt=""r8"">733902014135</Timestamp><Current dt:dt=""r8"">0</Current><DateUtc dt:dt=""string"">2017-07-10T14:36:19Z</DateUtc></FrequencyChange></FrequencyChanges></Clock>\n",60.003,1,-536831884,07-10-2017,09:36:19,2:36:19 PM,59,A181508_1T.wav,SHE BUMPED her HEAD.   ,1T,TypeSPINProc,StimList,she{SPACE}bumped{SPACE}her{SPACE}head{ESCAPE},11418,805550,56,1,59
SPIN,2006,1,"<?xml version=""1.0""?>\n<Clock xmlns:dt=""urn:schemas-microsoft-com:datatypes""><Description dt:dt=""string"">E-Prime Primary Realtime Clock</Description><StartTime><Timestamp dt:dt=""int"">0</Timestamp><DateUtc dt:dt=""string"">2017-07-10T14:36:19Z</DateUtc></StartTime><FrequencyChanges><FrequencyChange><Frequency dt:dt=""r8"">2923076</Frequency><Timestamp dt:dt=""r8"">733902014135</Timestamp><Current dt:dt=""r8"">0</Current><DateUtc dt:dt=""string"">2017-07-10T14:36:19Z</DateUtc></FrequencyChange></FrequencyChanges></Clock>\n",60.003,1,-536831884,07-10-2017,09:36:19,2:36:19 PM,60,A181014_SSN.wav,The GROUND was VERY HARD.   ,SSN,TypeSPINProc,StimList,the{SPACE}groud{SPACE}is{SPACE}very{SPACE}hard{ESCAPE},11746,818110,46,1,60
SPIN,2006,1,"<?xml version=""1.0""?>\n<Clock xmlns:dt=""urn:schemas-microsoft-com:datatypes""><Description dt:dt=""string"">E-Prime Primary Realtime Clock</Description><StartTime><Timestamp dt:dt=""int"">0</Timestamp><DateUtc dt:dt=""string"">2017-07-10T14:36:19Z</DateUtc></StartTime><FrequencyChanges><FrequencyChange><Frequency dt:dt=""r8"">2923076</Frequency><Timestamp dt:dt=""r8"">733902014135</Timestamp><Current dt:dt=""r8"">0</Current><DateUtc dt:dt=""string"">2017-07-10T14:36:19Z</DateUtc></FrequencyChange></FrequencyChanges></Clock>\n",60.003,1,-536831884,07-10-2017,09:36:19,2:36:19 PM,61,A180705_2T.wav,The FRUIT IS on the GROUND.   ,2Talker,TypeSPINProc,StimList,our{SPACE}fruit{SPACE}is{SPACE}on{SPACE}the{SPACE}ground{ESCAPE},12382,830829,5,1,61
SPIN,2006,1,"<?xml version=""1.0""?>\n<Clock xmlns:dt=""urn:schemas-microsoft-com:datatypes""><Description dt:dt=""string"">E-Prime Primary Realtime Clock</Description><StartTime><Timestamp dt:dt=""int"">0</Timestamp><DateUtc dt:dt=""string"">2017-07-10T14:36:19Z</DateUtc></StartTime><FrequencyChanges><FrequencyChange><Frequency dt:dt=""r8"">2923076</Frequency><Timestamp dt:dt=""r8"">733902014135</Timestamp><Current dt:dt=""r8"">0</Current><DateUtc dt:dt=""string"">2017-07-10T14:36:19Z</DateUtc></FrequencyChange></FrequencyChanges></Clock>\n",60.003,1,-536831884,07-10-2017,09:36:19,2:36:19 PM,62,A181507_1T.wav,Some NICE PEOPLE are COMING.   ,1T,TypeSPINProc,StimList,the{SPACE}nice{SPACE}people{SPACE}are{SPACE}coming{ESCAPE},11902,843132,55,1,62
SPIN,2006,1,"<?xml version=""1.0""?>\n<Clock xmlns:dt=""urn:schemas-microsoft-com:datatypes""><Description dt:dt=""string"">E-Prime Primary Realtime Clock</Description><StartTime><Timestamp dt:dt=""int"">0</Timestamp><DateUtc dt:dt=""string"">2017-07-10T14:36:19Z</DateUtc></StartTime><FrequencyChanges><FrequencyChange><Frequency dt:dt=""r8"">2923076</Frequency><Timestamp dt:dt=""r8"">733902014135</Timestamp><Current dt:dt=""r8"">0</Current><DateUtc dt:dt=""string"">2017-07-10T14:36:19Z</DateUtc></FrequencyChange></FrequencyChanges></Clock>\n",60.003,1,-536831884,07-10-2017,09:36:19,2:36:19 PM,63,A181506_1T.wav,The BOY HURRIED to SCHOOL.   ,1T,TypeSPINProc,StimList,the{SPACE}boy{SPACE}are{SPACE}going{SPACE}to{SPACE}school{ESCAPE},16464,860060,54,1,63
SPIN,2006,1,"<?xml version=""1.0""?>\n<Clock xmlns:dt=""urn:schemas-microsoft-com:datatypes""><Description dt:dt=""string"">E-Prime Primary Realtime Clock</Description><StartTime><Timestamp dt:dt=""int"">0</Timestamp><DateUtc dt:dt=""string"">2017-07-10T14:36:19Z</DateUtc></StartTime><FrequencyChanges><FrequencyChange><Frequency dt:dt=""r8"">2923076</Frequency><Timestamp dt:dt=""r8"">733902014135</Timestamp><Current dt:dt=""r8"">0</Current><DateUtc dt:dt=""string"">2017-07-10T14:36:19Z</DateUtc></FrequencyChange></FrequencyChanges></Clock>\n",60.003,1,-536831884,07-10-2017,09:36:19,2:36:19 PM,64,A181503_1T.wav,HE is SUCKING his THUMB.   ,1T,TypeSPINProc,StimList,he{SPACE}xx{SPACE}storm{ESCAPE},13756,874267,51,1,64