ExperimentName,Subject,Session,Clock.Information,Display.RefreshRate,Group,RandomSeed,SessionDate,SessionTime,SessionTimeUtc,Block,Filename,FileText,Noise,Procedure,Running,Slide1.RESP,Slide1.RT,Slide1.RTTime,StimList,StimList.Cycle,StimList.Sample
SPIN,2013,1,"<?xml version=""1.0""?>\n<Clock xmlns:dt=""urn:schemas-microsoft-com:datatypes""><Description dt:dt=""string"">E-Prime Primary Realtime Clock</Description><StartTime><Timestamp dt:dt=""int"">0</Timestamp><DateUtc dt:dt=""string"">2017-07-13T20:08:32Z</DateUtc></StartTime><FrequencyChanges><FrequencyChange><Frequency dt:dt=""r8"">2923105</Frequency><Timestamp dt:dt=""r8"">320386623466</Timestamp><Current dt:dt=""r8"">0</Current><DateUtc dt:dt=""string"">2017-07-13T20:08:32Z</DateUtc></FrequencyChange></FrequencyChanges></Clock>\n",60.004,1,-1735357761,07-13-2017,15:08:32,8:08:32 PM,1,A181512_1T.wav,The DAUGHTER SET the TABLE.   ,1T,TypeSPINProc,StimList,daughter{SPACE}said{SPACE}rain{SPACE}fall{ESCAPE},21873,98961,60,1,1
SPIN,2013,1,"<?xml version=""1.0""?>\n<Clock xmlns:dt=""urn:schemas-microsoft-com:datatypes""><Description dt:dt=""string"">E-Prime Primary Realtime Clock</Description><StartTime><Timestamp dt:dt=""int"">0</Timestamp><DateUtc dt:dt=""string"">2017-07-13T20:08:32Z</DateUtc></StartTime><FrequencyChanges><FrequencyChange><Frequency dt:dt=""r8"">2923105</Frequency><Timestamp dt:dt=""r8"">320386623466</Timestamp><Current dt:dt=""r8"">0</Current><DateUtc dt:dt=""string"">2017-07-13T20:08:32Z</DateUtc></FrequencyChange></FrequencyChanges></Clock>\n",60.004,1,-1735357761,07-13-2017,15:08:32,8:08:32 PM,2,A180713_2T.wav,The GIRL has a PICTURE BOOK.   ,2Talker,TypeSPINProc,StimList,the{SPACE}girl{SPACE}has{SPACE}a{SPACE}{LEFTBRACKET}picture{ESCAPE},17437,119024,13,1,2
SPIN,2013,1,"<?xml version=""1.0""?>\n<Clock xmlns:dt=""urn:schemas-microsoft-com:datatypes""><Description dt:dt=""string"">E-Prime Primary Realtime Clock</Description><StartTime><Timestamp dt:dt=""int"">0</Timestamp><DateUtc dt:dt=""string"">2017-07-13T20:08:32Z</DateUtc></StartTime><FrequencyChanges><FrequencyChange><Frequency dt:dt=""r8"">2923105</Frequency><Timestamp dt:dt=""r8"">320386623466</Timestamp><Current dt:dt=""r8"">0</Current><DateUtc dt:dt=""string"">2017-07-13T20:08:32Z</DateUtc></FrequencyChange></FrequencyChanges></Clock>\n",60.004,1,-1735357761,07-13-2017,15:08:32,8:08:32 PM,3,A180708_2T.wav,The YOUNG PEOPLE are DANCING.,2Talker,TypeSPINProc,StimList,the{SPACE}young{SPACE}peple{ESCAPE},13692,135111,8,1,3
SPIN,2013,1,"<?xml version=""1.0""?>\n<Clock xmlns:dt=""urn:schemas-microsoft-com:datatypes""><Description dt:dt=""string"">E-Prime Primary Realtime Clock</Description><StartTime><Timestamp dt:dt=""int"">0</Timestamp><DateUtc dt:dt=""string"">2017-07-13T20:08:32Z</DateUtc></StartTime><FrequencyChanges><FrequencyChange><Frequency dt:dt=""r8"">2923105</Frequency><Timestamp dt:dt=""r8"">320386623466</Timestamp><Current dt:dt=""r8"">0</Current><DateUtc dt:dt=""string"">2017-07-13T20:08:32Z</DateUtc></FrequencyChange></FrequencyChanges></Clock>\n",60.004,1,-1735357761,07-13-2017,15:08:32,8:08:32 PM,4,A180908_8T.wav,HE LISTENED TO his FATHER.   ,SSN,TypeSPINProc,StimList,you{SPACE}listen{SPACE}to{SPACE}this{SPACE}following{ESCAPE},20200,161517,24,1,4
SPIN,2013,1,"<?xml version=""1.0""?>\n<Clock xmlns:dt=""urn:schemas-microsoft-com:datatypes""><Description dt:dt=""string"">E-Prime Primary Realtime Clock</Description><StartTime><Timestamp dt:dt=""int"">0</Timestamp><DateUtc dt:dt=""string"">2017-07-13T20:08:32Z</DateUtc></StartTime><FrequencyChanges><FrequencyChange><Frequency dt:dt=""r8"">2923105</Frequency><Timestamp dt:dt=""r8"">320386623466</Timestamp><Current dt:dt=""r8"">0</Current><DateUtc dt:dt=""string"">2017-07-13T20:08:32Z</DateUtc></FrequencyChange></FrequencyChanges></Clock>\n",60.004,1,-1735357761,07-13-2017,15:08:32,8:08:32 PM,5,A180905_8T.wav,The TABLE has THREE LEGS.   ,SSN,TypeSPINProc,StimList,the{SPACE}table{SPACE}has{SPACE}three{SPACE}legs{ESCAPE},9395,172261,21,1,5
SPIN,2013,1,"<?xml version=""1.0""?>\n<Clock xmlns:dt=""urn:schemas-microsoft-com:datatypes""><Description dt:dt=""string"">E-Prime Primary Realtime Clock</Description><StartTime><Timestamp dt:dt=""int"">0</Timestamp><DateUtc dt:dt=""string"">2017-07-13T20:08:32Z</DateUtc></StartTime><FrequencyChanges><FrequencyChange><Frequency dt:dt=""r8"">2923105</Frequency><Timestamp dt:dt=""r8"">320386623466</Timestamp><Current dt:dt=""r8"">0</Current><DateUtc dt:dt=""string"">2017-07-13T20:08:32Z</DateUtc></FrequencyChange></FrequencyChanges></Clock>\n",60.004,1,-1735357761,07-13-2017,15:08:32,8:08:32 PM,6,A181516_1T.wav,The PUPPY PLAYS with a BALL.   ,1T,TypeSPINProc,StimList,the{SPACE}wall{SPACE}player{SPACE}has{SPACE}the{SPACE}ball{ESCAPE},44445,217810,64,1,6
SPIN,2013,1,"<?xml version=""1.0""?>\n<Clock xmlns:dt=""urn:schemas-microsoft-com:datatypes""><Description dt:dt=""string"">E-Prime Primary Realtime Clock</Description><StartTime><Timestamp dt:dt=""int"">0</Timestamp><DateUtc dt:dt=""string"">2017-07-13T20:08:32Z</DateUtc></StartTime><FrequencyChanges><FrequencyChange><Frequency dt:dt=""r8"">2923105</Frequency><Timestamp dt:dt=""r8"">320386623466</Timestamp><Current dt:dt=""r8"">0</Current><DateUtc dt:dt=""string"">2017-07-13T20:08:32Z</DateUtc></FrequencyChange></FrequencyChanges></Clock>\n",60.004,1,-1735357761,07-13-2017,15:08:32,8:08:32 PM,7,A180714_2T.wav,The ORANGE was VERY SWEET.   ,2Talker,TypeSPINProc,StimList,the{SPACE}oranges{SPACE}are{SPACE}very{SPACE}sweet{ESCAPE},13973,232769,14,1,7
SPIN,2013,1,"<?xml version=""1.0""?>\n<Clock xmlns:dt=""urn:schemas-microsoft-com:datatypes""><Description dt:dt=""string"">E-Prime Primary Realtime Clock</Description><StartTime><Timestamp dt:dt=""int"">0</Timestamp><DateUtc dt:dt=""string"">2017-07-13T20:08:32Z</DateUtc></StartTime><FrequencyChanges><FrequencyChange><Frequency dt:dt=""r8"">2923105</Frequency><Timestamp dt:dt=""r8"">320386623466</Timestamp><Current dt:dt=""r8"">0</Current><DateUtc dt:dt=""string"">2017-07-13T20:08:32Z</DateUtc></FrequencyChange></FrequencyChanges></Clock>\n",60.004,1,-1735357761,07-13-2017,15:08:32,8:08:32 PM,8,A181510_1T.wav,The RAINCOAT is HANGING UP.  ,1T,TypeSPINProc,StimList,the{SPACE}raincoat{SPACE}is{SPACE}hanging{SPACE}up{ESCAPE},15577,255671,58,1,8
SPIN,2013,1,"<?xml version=""1.0""?>\n<Clock xmlns:dt=""urn:schemas-microsoft-com:datatypes""><Description dt:dt=""string"">E-Prime Primary Realtime Clock</Description><StartTime><Timestamp dt:dt=""int"">0</Timestamp><DateUtc dt:dt=""string"">2017-07-13T20:08:32Z</DateUtc></StartTime><FrequencyChanges><FrequencyChange><Frequency dt:dt=""r8"">2923105</Frequency><Timestamp dt:dt=""r8"">320386623466</Timestamp><Current dt:dt=""r8"">0</Current><DateUtc dt:dt=""string"">2017-07-13T20:08:32Z</DateUtc></FrequencyChange></FrequencyChanges></Clock>\n",60.004,1,-1735357761,07-13-2017,15:08:32,8:08:32 PM,9,A180711_2T.wav,The BALL is BOUNCING very HIGH.   ,2Talker,TypeSPINProc,StimList,the{SPACE}ball{SPACE}is{SPACE}ticking{ESCAPE},21500,278110,11,1,9
SPIN,2013,1,"<?xml version=""1.0""?>\n<Clock xmlns:dt=""urn:schemas-microsoft-com:datatypes""><Description dt:dt=""string"">E-Prime Primary Realtime Clock</Description><StartTime><Timestamp dt:dt=""int"">0</Timestamp><DateUtc dt:dt=""string"">2017-07-13T20:08:32Z</DateUtc></StartTime><FrequencyChanges><FrequencyChange><Frequency dt:dt=""r8"">2923105</Frequency><Timestamp dt:dt=""r8"">320386623466</Timestamp><Current dt:dt=""r8"">0</Current><DateUtc dt:dt=""string"">2017-07-13T20:08:32Z</DateUtc></FrequencyChange></FrequencyChanges></Clock>\n",60.004,1,-1735357761,07-13-2017,15:08:32,8:08:32 PM,10,A180707_2T.wav,THEY WASHED in COLD WATER.   ,2Talker,TypeSPINProc,StimList,the{SPACE}{SHIFT}Feburary{SPACE}has{SPACE}twenty{-}eight{SPACE}days{ESCAPE},42324,340298,7,1,10
SPIN,2013,1,"<?xml version=""1.0""?>\n<Clock xmlns:dt=""urn:schemas-microsoft-com:datatypes""><Description dt:dt=""string"">E-Prime Primary Realtime Clock</Description><StartTime><Timestamp dt:dt=""int"">0</Timestamp><DateUtc dt:dt=""string"">2017-07-13T20:08:32Z</DateUtc></StartTime><FrequencyChanges><FrequencyChange><Frequency dt:dt=""r8"">2923105</Frequency><Timestamp dt:dt=""r8"">320386623466</Timestamp><Current dt:dt=""r8"">0</Current><DateUtc dt:dt=""string"">2017-07-13T20:08:32Z</DateUtc></FrequencyChange></FrequencyChanges></Clock>\n",60.004,1,-1735357761,07-13-2017,15:08:32,8:08:32 PM,11,A180913_8T.wav,The DINNER PLATE is HOT.   ,SSN,TypeSPINProc,StimList,the{SPACE}dinner{SPACE}plate{SPACE}is{SPACE}hot{ESCAPE},12663,353601,29,1,11
SPIN,2013,1,"<?xml version=""1.0""?>\n<Clock xmlns:dt=""urn:schemas-microsoft-com:datatypes""><Description dt:dt=""string"">E-Prime Primary Realtime Clock</Description><StartTime><Timestamp dt:dt=""int"">0</Timestamp><DateUtc dt:dt=""string"">2017-07-13T20:08:32Z</DateUtc></StartTime><FrequencyChanges><FrequencyChange><Frequency dt:dt=""r8"">2923105</Frequency><Timestamp dt:dt=""r8"">320386623466</Timestamp><Current dt:dt=""r8"">0</Current><DateUtc dt:dt=""string"">2017-07-13T20:08:32Z</DateUtc></FrequencyChange></FrequencyChanges></Clock>\n",60.004,1,-1735357761,07-13-2017,15:08:32,8:08:32 PM,12,A180903_8T.wav,THEY are CLIMBING the TREE.   ,8Talker,TypeSPINProc,StimList,the{SPACE}wall{SPACE}street{ESCAPE},43189,398110,19,1,12
SPIN,2013,1,"<?xml version=""1.0""?>\n<Clock xmlns:dt=""urn:schemas-microsoft-com:datatypes""><Description dt:dt=""string"">E-Prime Primary Realtime Clock</Description><StartTime><Timestamp dt:dt=""int"">0</Timestamp><DateUtc dt:dt=""string"">2017-07-13T20:08:32Z</DateUtc></StartTime><FrequencyChanges><FrequencyChange><Frequency dt:dt=""r8"">2923105</Frequency><Timestamp dt:dt=""r8"">320386623466</Timestamp><Current dt:dt=""r8"">0</Current><DateUtc dt:dt=""string"">2017-07-13T20:08:32Z</DateUtc></FrequencyChange></FrequencyChanges></Clock>\n",60.004,1,-1735357761,07-13-2017,15:08:32,8:08:32 PM,13,A180912_8T.wav,The LADY PACKED her BAG.   ,SSN,TypeSPINProc,StimList,the{SPACE}lady{SPACE}packed{SPACE}bag{ESCAPE},13588,414589,28,1,13
SPIN,2013,1,"<?xml version=""1.0""?>\n<Clock xmlns:dt=""urn:schemas-microsoft-com:datatypes""><Description dt:dt=""string"">E-Prime Primary Realtime Clock</Description><StartTime><Timestamp dt:dt=""int"">0</Timestamp><DateUtc dt:dt=""string"">2017-07-13T20:08:32Z</DateUtc></StartTime><FrequencyChanges><FrequencyChange><Frequency dt:dt=""r8"">2923105</Frequency><Timestamp dt:dt=""r8"">320386623466</Timestamp><Current dt:dt=""r8"">0</Current><DateUtc dt:dt=""string"">2017-07-13T20:08:32Z</DateUtc></FrequencyChange></FrequencyChanges></Clock>\n",60.004,1,-1735357761,07-13-2017,15:08:32,8:08:32 PM,14,A181015_SSN.wav,The BUCKETS HOLD WATER.   ,SSN,TypeSPINProc,StimList,the{SPACE}bucket{SPACE}full{SPACE}of{SPACE}rocks{ESCAPE},14503,430636,47,1,14
SPIN,2013,1,"<?xml version=""1.0""?>\n<Clock xmlns:dt=""urn:schemas-microsoft-com:datatypes""><Description dt:dt=""string"">E-Prime Primary Realtime Clock</Description><StartTime><Timestamp dt:dt=""int"">0</Timestamp><DateUtc dt:dt=""string"">2017-07-13T20:08:32Z</DateUtc></StartTime><FrequencyChanges><FrequencyChange><Frequency dt:dt=""r8"">2923105</Frequency><Timestamp dt:dt=""r8"">320386623466</Timestamp><Current dt:dt=""r8"">0</Current><DateUtc dt:dt=""string"">2017-07-13T20:08:32Z</DateUtc></FrequencyChange></FrequencyChanges></Clock>\n",60.004,1,-1735357761,07-13-2017,15:08:32,8:08:32 PM,15,A180915_8T.wav,The CHILD DRANK some MILK.   ,SSN,TypeSPINProc,StimList,the{SPACE}child{ESCAPE},29038,460954,31,1,15
SPIN,2013,1,"<?xml version=""1.0""?>\n<Clock xmlns:dt=""urn:schemas-microsoft-com:datatypes""><Description dt:dt=""string"">E-Prime Primary Realtime Clock</Description><StartTime><Timestamp dt:dt=""int"">0</Timestamp><DateUtc dt:dt=""string"">2017-07-13T20:08:32Z</DateUtc></StartTime><FrequencyChanges><FrequencyChange><Frequency dt:dt=""r8"">2923105</Frequency><Timestamp dt:dt=""r8"">320386623466</Timestamp><Current dt:dt=""r8"">0</Current><DateUtc dt:dt=""string"">2017-07-13T20:08:32Z</DateUtc></FrequencyChange></FrequencyChanges></Clock>\n",60.004,1,-1735357761,07-13-2017,15:08:32,8:08:32 PM,16,A181012_SSN.wav,The MILK was by the FRONT DOOR.   ,SSN,TypeSPINProc,StimList,the{SPACE}nobles{SPACE}is{SPACE}by{SPACE}the{SPACE}parking{ESCAPE},20824,483921,44,1,16
SPIN,2013,1,"<?xml version=""1.0""?>\n<Clock xmlns:dt=""urn:schemas-microsoft-com:datatypes""><Description dt:dt=""string"">E-Prime Primary Realtime Clock</Description><StartTime><Timestamp dt:dt=""int"">0</Timestamp><DateUtc dt:dt=""string"">2017-07-13T20:08:32Z</DateUtc></StartTime><FrequencyChanges><FrequencyChange><Frequency dt:dt=""r8"">2923105</Frequency><Timestamp dt:dt=""r8"">320386623466</Timestamp><Current dt:dt=""r8"">0</Current><DateUtc dt:dt=""string"">2017-07-13T20:08:32Z</DateUtc></FrequencyChange></FrequencyChanges></Clock>\n",60.004,1,-1735357761,07-13-2017,15:08:32,8:08:32 PM,17,A180910_8T.wav,THEY WENT on a VACATION.   ,SSN,TypeSPINProc,StimList,they{SPACE}went{SPACE}to{SPACE}a{SPACE}vacation{ESCAPE},12578,499240,26,1,17
SPIN,2013,1,"<?xml version=""1.0""?>\n<Clock xmlns:dt=""urn:schemas-microsoft-com:datatypes""><Description dt:dt=""string"">E-Prime Primary Realtime Clock</Description><StartTime><Timestamp dt:dt=""int"">0</Timestamp><DateUtc dt:dt=""string"">2017-07-13T20:08:32Z</DateUtc></StartTime><FrequencyChanges><FrequencyChange><Frequency dt:dt=""r8"">2923105</Frequency><Timestamp dt:dt=""r8"">320386623466</Timestamp><Current dt:dt=""r8"">0</Current><DateUtc dt:dt=""string"">2017-07-13T20:08:32Z</DateUtc></FrequencyChange></FrequencyChanges></Clock>\n",60.004,1,-1735357761,07-13-2017,15:08:32,8:08:32 PM,18,A181016_SSN.wav,The CHICKEN LAID some EGGS.   ,SSN,TypeSPINProc,StimList,the{SPACE}chicken{SPACE}laids{SPACE}legs{ESCAPE},13058,513319,48,1,18
SPIN,2013,1,"<?xml version=""1.0""?>\n<Clock xmlns:dt=""urn:schemas-microsoft-com:datatypes""><Description dt:dt=""string"">E-Prime Primary Realtime Clock</Description><StartTime><Timestamp dt:dt=""int"">0</Timestamp><DateUtc dt:dt=""string"">2017-07-13T20:08:32Z</DateUtc></StartTime><FrequencyChanges><FrequencyChange><Frequency dt:dt=""r8"">2923105</Frequency><Timestamp dt:dt=""r8"">320386623466</Timestamp><Current dt:dt=""r8"">0</Current><DateUtc dt:dt=""string"">2017-07-13T20:08:32Z</DateUtc></FrequencyChange></FrequencyChanges></Clock>\n",60.004,1,-1735357761,07-13-2017,15:08:32,8:08:32 PM,19,A181006_SSN.wav,The KITCHEN CLOCK was WRONG.   ,SSN,TypeSPINProc,StimList,the{SPACE}kitchen{SPACE}p{LEFTBRACKET}ots{SPACE}is{SPACE}{ESCAPE},29598,543309,38,1,19
SPIN,2013,1,"<?xml version=""1.0""?>\n<Clock xmlns:dt=""urn:schemas-microsoft-com:datatypes""><Description dt:dt=""string"">E-Prime Primary Realtime Clock</Description><StartTime><Timestamp dt:dt=""int"">0</Timestamp><DateUtc dt:dt=""string"">2017-07-13T20:08:32Z</DateUtc></StartTime><FrequencyChanges><FrequencyChange><Frequency dt:dt=""r8"">2923105</Frequency><Timestamp dt:dt=""r8"">320386623466</Timestamp><Current dt:dt=""r8"">0</Current><DateUtc dt:dt=""string"">2017-07-13T20:08:32Z</DateUtc></FrequencyChange></FrequencyChanges></Clock>\n",60.004,1,-1735357761,07-13-2017,15:08:32,8:08:32 PM,20,A180911_8T.wav,The BABY BROKE his CUP.   ,8Talker,TypeSPINProc,StimList,the{SPACE}teeth{ESCAPE},49239,593914,27,1,20
SPIN,2013,1,"<?xml version=""1.0""?>\n<Clock xmlns:dt=""urn:schemas-microsoft-com:datatypes""><Description dt:dt=""string"">E-Prime Primary Realtime Clock</Description><StartTime><Timestamp dt:dt=""int"">0</Timestamp><DateUtc dt:dt=""string"">2017-07-13T20:08:32Z</DateUtc></StartTime><FrequencyChanges><FrequencyChange><Frequency dt:dt=""r8"">2923105</Frequency><Timestamp dt:dt=""r8"">320386623466</Timestamp><Current dt:dt=""r8"">0</Current><DateUtc dt:dt=""string"">2017-07-13T20:08:32Z</DateUtc></FrequencyChange></FrequencyChanges></Clock>\n",60.004,1,-1735357761,07-13-2017,15:08:32,8:08:32 PM,21,A181508_1T.wav,SHE BUMPED her HEAD.   ,1T,TypeSPINProc,StimList,many{SPACE}people{SPACE}like{SPACE}to{SPACE}start{SPACE}a{SPACE}day{ESCAPE},11319,606041,56,1,21
SPIN,2013,1,"<?xml version=""1.0""?>\n<Clock xmlns:dt=""urn:schemas-microsoft-com:datatypes""><Description dt:dt=""string"">E-Prime Primary Realtime Clock</Description><StartTime><Timestamp dt:dt=""int"">0</Timestamp><DateUtc dt:dt=""string"">2017-07-13T20:08:32Z</DateUtc></StartTime><FrequencyChanges><FrequencyChange><Frequency dt:dt=""r8"">2923105</Frequency><Timestamp dt:dt=""r8"">320386623466</Timestamp><Current dt:dt=""r8"">0</Current><DateUtc dt:dt=""string"">2017-07-13T20:08:32Z</DateUtc></FrequencyChange></FrequencyChanges></Clock>\n",60.004,1,-1735357761,07-13-2017,15:08:32,8:08:32 PM,22,A181002_SSN.wav,The JANITOR USED a BROOM.   ,SSN,TypeSPINProc,StimList,the{SPACE}gender{SPACE}who{SPACE}is{SPACE}rud{ESCAPE},11596,618784,34,1,22
SPIN,2013,1,"<?xml version=""1.0""?>\n<Clock xmlns:dt=""urn:schemas-microsoft-com:datatypes""><Description dt:dt=""string"">E-Prime Primary Realtime Clock</Description><StartTime><Timestamp dt:dt=""int"">0</Timestamp><DateUtc dt:dt=""string"">2017-07-13T20:08:32Z</DateUtc></StartTime><FrequencyChanges><FrequencyChange><Frequency dt:dt=""r8"">2923105</Frequency><Timestamp dt:dt=""r8"">320386623466</Timestamp><Current dt:dt=""r8"">0</Current><DateUtc dt:dt=""string"">2017-07-13T20:08:32Z</DateUtc></FrequencyChange></FrequencyChanges></Clock>\n",60.004,1,-1735357761,07-13-2017,15:08:32,8:08:32 PM,23,A181513_1T.wav,THEY WALKED ACROSS the GRASS.   ,1T,TypeSPINProc,StimList,the{SPACE}grass{ESCAPE},26983,647087,61,1,23
SPIN,2013,1,"<?xml version=""1.0""?>\n<Clock xmlns:dt=""urn:schemas-microsoft-com:datatypes""><Description dt:dt=""string"">E-Prime Primary Realtime Clock</Description><StartTime><Timestamp dt:dt=""int"">0</Timestamp><DateUtc dt:dt=""string"">2017-07-13T20:08:32Z</DateUtc></StartTime><FrequencyChanges><FrequencyChange><Frequency dt:dt=""r8"">2923105</Frequency><Timestamp dt:dt=""r8"">320386623466</Timestamp><Current dt:dt=""r8"">0</Current><DateUtc dt:dt=""string"">2017-07-13T20:08:32Z</DateUtc></FrequencyChange></FrequencyChanges></Clock>\n",60.004,1,-1735357761,07-13-2017,15:08:32,8:08:32 PM,24,A181506_1T.wav,The BOY HURRIED to SCHOOL.   ,1T,TypeSPINProc,StimList,the{SPACE}boy{SPACE}went{SPACE}to{SPACE}school{ESCAPE},10813,659582,54,1,24
SPIN,2013,1,"<?xml version=""1.0""?>\n<Clock xmlns:dt=""urn:schemas-microsoft-com:datatypes""><Description dt:dt=""string"">E-Prime Primary Realtime Clock</Description><StartTime><Timestamp dt:dt=""int"">0</Timestamp><DateUtc dt:dt=""string"">2017-07-13T20:08:32Z</DateUtc></StartTime><FrequencyChanges><FrequencyChange><Frequency dt:dt=""r8"">2923105</Frequency><Timestamp dt:dt=""r8"">320386623466</Timestamp><Current dt:dt=""r8"">0</Current><DateUtc dt:dt=""string"">2017-07-13T20:08:32Z</DateUtc></FrequencyChange></FrequencyChanges></Clock>\n",60.004,1,-1735357761,07-13-2017,15:08:32,8:08:32 PM,25,A181013_SSN.wav,The SHIRTS are HANGING in the CLOSET.   ,SSN,TypeSPINProc,StimList,the{SPACE}shirts{SPACE}are{SPACE}hanging{SPACE}on{SPACE}the{SPACE}corner{ESCAPE},14261,674629,45,1,25
SPIN,2013,1,"<?xml version=""1.0""?>\n<Clock xmlns:dt=""urn:schemas-microsoft-com:datatypes""><Description dt:dt=""string"">E-Prime Primary Realtime Clock</Description><StartTime><Timestamp dt:dt=""int"">0</Timestamp><DateUtc dt:dt=""string"">2017-07-13T20:08:32Z</DateUtc></StartTime><FrequencyChanges><FrequencyChange><Frequency dt:dt=""r8"">2923105</Frequency><Timestamp dt:dt=""r8"">320386623466</Timestamp><Current dt:dt=""r8"">0</Current><DateUtc dt:dt=""string"">2017-07-13T20:08:32Z</DateUtc></FrequencyChange></FrequencyChanges></Clock>\n",60.004,1,-1735357761,07-13-2017,15:08:32,8:08:32 PM,26,A181515_1T.wav,The TRAIN STOPS at the STATION.   ,1T,TypeSPINProc,StimList,the{SPACE}train{SPACE}stopped{SPACE}at{SPACE}the{SPACE}station{ESCAPE},9351,684668,63,1,26
SPIN,2013,1,"<?xml version=""1.0""?>\n<Clock xmlns:dt=""urn:schemas-microsoft-com:datatypes""><Description dt:dt=""string"">E-Prime Primary Realtime Clock</Description><StartTime><Timestamp dt:dt=""int"">0</Timestamp><DateUtc dt:dt=""string"">2017-07-13T20:08:32Z</DateUtc></StartTime><FrequencyChanges><FrequencyChange><Frequency dt:dt=""r8"">2923105</Frequency><Timestamp dt:dt=""r8"">320386623466</Timestamp><Current dt:dt=""r8"">0</Current><DateUtc dt:dt=""string"">2017-07-13T20:08:32Z</DateUtc></FrequencyChange></FrequencyChanges></Clock>\n",60.004,1,-1735357761,07-13-2017,15:08:32,8:08:32 PM,27,A181010_SSN.wav,THEY are RIDING their BICYCLES.   ,SSN,TypeSPINProc,StimList,they{SPACE}are{SPACE}ridding{SPACE}the{SPACE}bicycles{SPACE}{ESCAPE},20119,705603,42,1,27
SPIN,2013,1,"<?xml version=""1.0""?>\n<Clock xmlns:dt=""urn:schemas-microsoft-com:datatypes""><Description dt:dt=""string"">E-Prime Primary Realtime Clock</Description><StartTime><Timestamp dt:dt=""int"">0</Timestamp><DateUtc dt:dt=""string"">2017-07-13T20:08:32Z</DateUtc></StartTime><FrequencyChanges><FrequencyChange><Frequency dt:dt=""r8"">2923105</Frequency><Timestamp dt:dt=""r8"">320386623466</Timestamp><Current dt:dt=""r8"">0</Current><DateUtc dt:dt=""string"">2017-07-13T20:08:32Z</DateUtc></FrequencyChange></FrequencyChanges></Clock>\n",60.004,1,-1735357761,07-13-2017,15:08:32,8:08:32 PM,28,A181007_SSN.wav,The DOG JUMPED ON the CHAIR.   ,SSN,TypeSPINProc,StimList,the{SPACE}dog{SPACE}has{SPACE}the{SPACE}chains{ESCAPE},14260,720642,39,1,28
SPIN,2013,1,"<?xml version=""1.0""?>\n<Clock xmlns:dt=""urn:schemas-microsoft-com:datatypes""><Description dt:dt=""string"">E-Prime Primary Realtime Clock</Description><StartTime><Timestamp dt:dt=""int"">0</Timestamp><DateUtc dt:dt=""string"">2017-07-13T20:08:32Z</DateUtc></StartTime><FrequencyChanges><FrequencyChange><Frequency dt:dt=""r8"">2923105</Frequency><Timestamp dt:dt=""r8"">320386623466</Timestamp><Current dt:dt=""r8"">0</Current><DateUtc dt:dt=""string"">2017-07-13T20:08:32Z</DateUtc></FrequencyChange></FrequencyChanges></Clock>\n",60.004,1,-1735357761,07-13-2017,15:08:32,8:08:32 PM,29,A180701_2T.wav,The CHILDREN DROPPED the BAG,2Talker,TypeSPINProc,StimList,the{SPACE}children{SPACE}dropped{SPACE}the{SPACE}bags{ESCAPE},9062,730393,1,1,29
SPIN,2013,1,"<?xml version=""1.0""?>\n<Clock xmlns:dt=""urn:schemas-microsoft-com:datatypes""><Description dt:dt=""string"">E-Prime Primary Realtime Clock</Description><StartTime><Timestamp dt:dt=""int"">0</Timestamp><DateUtc dt:dt=""string"">2017-07-13T20:08:32Z</DateUtc></StartTime><FrequencyChanges><FrequencyChange><Frequency dt:dt=""r8"">2923105</Frequency><Timestamp dt:dt=""r8"">320386623466</Timestamp><Current dt:dt=""r8"">0</Current><DateUtc dt:dt=""string"">2017-07-13T20:08:32Z</DateUtc></FrequencyChange></FrequencyChanges></Clock>\n",60.004,1,-1735357761,07-13-2017,15:08:32,8:08:32 PM,30,A180709_2T.wav,The BUS LEFT EARLY.   ,2Talker,TypeSPINProc,StimList,{SHIFT}Monday{SPACE}is{SPACE}the{SPACE}first{SPACE}day{SPACE}of{SPACE}the{SPACE}week{ESCAPE},16075,747272,9,1,30
SPIN,2013,1,"<?xml version=""1.0""?>\n<Clock xmlns:dt=""urn:schemas-microsoft-com:datatypes""><Description dt:dt=""string"">E-Prime Primary Realtime Clock</Description><StartTime><Timestamp dt:dt=""int"">0</Timestamp><DateUtc dt:dt=""string"">2017-07-13T20:08:32Z</DateUtc></StartTime><FrequencyChanges><FrequencyChange><Frequency dt:dt=""r8"">2923105</Frequency><Timestamp dt:dt=""r8"">320386623466</Timestamp><Current dt:dt=""r8"">0</Current><DateUtc dt:dt=""string"">2017-07-13T20:08:32Z</DateUtc></FrequencyChange></FrequencyChanges></Clock>\n",60.004,1,-1735357761,07-13-2017,15:08:32,8:08:32 PM,31,A181014_SSN.wav,The GROUND was VERY HARD.   ,SSN,TypeSPINProc,StimList,the{SPACE}ground{SPACE}is{SPACE}very{SPACE}hot{ESCAPE},7851,755864,46,1,31
SPIN,2013,1,"<?xml version=""1.0""?>\n<Clock xmlns:dt=""urn:schemas-microsoft-com:datatypes""><Description dt:dt=""string"">E-Prime Primary Realtime Clock</Description><StartTime><Timestamp dt:dt=""int"">0</Timestamp><DateUtc dt:dt=""string"">2017-07-13T20:08:32Z</DateUtc></StartTime><FrequencyChanges><FrequencyChange><Frequency dt:dt=""r8"">2923105</Frequency><Timestamp dt:dt=""r8"">320386623466</Timestamp><Current dt:dt=""r8"">0</Current><DateUtc dt:dt=""string"">2017-07-13T20:08:32Z</DateUtc></FrequencyChange></FrequencyChanges></Clock>\n",60.004,1,-1735357761,07-13-2017,15:08:32,8:08:32 PM,32,A181507_1T.wav,Some NICE PEOPLE are COMING.   ,1T,TypeSPINProc,StimList,the{SPACE}nice{SPACE}people{SPACE}are{SPACE}coming{ESCAPE},6876,763455,55,1,32
SPIN,2013,1,"<?xml version=""1.0""?>\n<Clock xmlns:dt=""urn:schemas-microsoft-com:datatypes""><Description dt:dt=""string"">E-Prime Primary Realtime Clock</Description><StartTime><Timestamp dt:dt=""int"">0</Timestamp><DateUtc dt:dt=""string"">2017-07-13T20:08:32Z</DateUtc></StartTime><FrequencyChanges><FrequencyChange><Frequency dt:dt=""r8"">2923105</Frequency><Timestamp dt:dt=""r8"">320386623466</Timestamp><Current dt:dt=""r8"">0</Current><DateUtc dt:dt=""string"">2017-07-13T20:08:32Z</DateUtc></FrequencyChange></FrequencyChanges></Clock>\n",60.004,1,-1735357761,07-13-2017,15:08:32,8:08:32 PM,33,A180906_8T.wav,A LETTER FELL on the FLOOR.   ,SSN,TypeSPINProc,StimList,all{SPACE}day{ESCAPE},17840,781718,22,1,33
SPIN,2013,1,"<?xml version=""1.0""?>\n<Clock xmlns:dt=""urn:schemas-microsoft-com:datatypes""><Description dt:dt=""string"">E-Prime Primary Realtime Clock</Description><StartTime><Timestamp dt:dt=""int"">0</Timestamp><DateUtc dt:dt=""string"">2017-07-13T20:08:32Z</DateUtc></StartTime><FrequencyChanges><FrequencyChange><Frequency dt:dt=""r8"">2923105</Frequency><Timestamp dt:dt=""r8"">320386623466</Timestamp><Current dt:dt=""r8"">0</Current><DateUtc dt:dt=""string"">2017-07-13T20:08:32Z</DateUtc></FrequencyChange></FrequencyChanges></Clock>\n",60.004,1,-1735357761,07-13-2017,15:08:32,8:08:32 PM,34,A181001_SSN.wav,A DISH TOWEL is by the SINK.   ,SSN,TypeSPINProc,StimList,the{SPACE}dish{SPACE}towel{SPACE}is{SPACE}by{SPACE}the{SPACE}sink{ESCAPE},12636,795213,33,1,34
SPIN,2013,1,"<?xml version=""1.0""?>\n<Clock xmlns:dt=""urn:schemas-microsoft-com:datatypes""><Description dt:dt=""string"">E-Prime Primary Realtime Clock</Description><StartTime><Timestamp dt:dt=""int"">0</Timestamp><DateUtc dt:dt=""string"">2017-07-13T20:08:32Z</DateUtc></StartTime><FrequencyChanges><FrequencyChange><Frequency dt:dt=""r8"">2923105</Frequency><Timestamp dt:dt=""r8"">320386623466</Timestamp><Current dt:dt=""r8"">0</Current><DateUtc dt:dt=""string"">2017-07-13T20:08:32Z</DateUtc></FrequencyChange></FrequencyChanges></Clock>\n",60.004,1,-1735357761,07-13-2017,15:08:32,8:08:32 PM,35,A181502_1T.wav,The OVEN is TOO HOT.,1T,TypeSPINProc,StimList,{SHIFT}Monday{SPACE}is{SPACE}first{SPACE}day{SPACE}of{SPACE}the{SPACE}week{ESCAPE},14073,811732,50,1,35
SPIN,2013,1,"<?xml version=""1.0""?>\n<Clock xmlns:dt=""urn:schemas-microsoft-com:datatypes""><Description dt:dt=""string"">E-Prime Primary Realtime Clock</Description><StartTime><Timestamp dt:dt=""int"">0</Timestamp><DateUtc dt:dt=""string"">2017-07-13T20:08:32Z</DateUtc></StartTime><FrequencyChanges><FrequencyChange><Frequency dt:dt=""r8"">2923105</Frequency><Timestamp dt:dt=""r8"">320386623466</Timestamp><Current dt:dt=""r8"">0</Current><DateUtc dt:dt=""string"">2017-07-13T20:08:32Z</DateUtc></FrequencyChange></FrequencyChanges></Clock>\n",60.004,1,-1735357761,07-13-2017,15:08:32,8:08:32 PM,36,A180702_2T.wav,The DOG CAME BACK.   ,2Talker,TypeSPINProc,StimList,last{SPACE}night{ESCAPE},29244,842586,2,1,36
SPIN,2013,1,"<?xml version=""1.0""?>\n<Clock xmlns:dt=""urn:schemas-microsoft-com:datatypes""><Description dt:dt=""string"">E-Prime Primary Realtime Clock</Description><StartTime><Timestamp dt:dt=""int"">0</Timestamp><DateUtc dt:dt=""string"">2017-07-13T20:08:32Z</DateUtc></StartTime><FrequencyChanges><FrequencyChange><Frequency dt:dt=""r8"">2923105</Frequency><Timestamp dt:dt=""r8"">320386623466</Timestamp><Current dt:dt=""r8"">0</Current><DateUtc dt:dt=""string"">2017-07-13T20:08:32Z</DateUtc></FrequencyChange></FrequencyChanges></Clock>\n",60.004,1,-1735357761,07-13-2017,15:08:32,8:08:32 PM,37,A181511_1T.wav,The TINY BABY was PRETTY.   ,1T,TypeSPINProc,StimList,the{SPACE}tinny{SPACE}baby{SPACE}is{SPACE}{SHIFT}Chris{ESCAPE},20152,865025,59,1,37
SPIN,2013,1,"<?xml version=""1.0""?>\n<Clock xmlns:dt=""urn:schemas-microsoft-com:datatypes""><Description dt:dt=""string"">E-Prime Primary Realtime Clock</Description><StartTime><Timestamp dt:dt=""int"">0</Timestamp><DateUtc dt:dt=""string"">2017-07-13T20:08:32Z</DateUtc></StartTime><FrequencyChanges><FrequencyChange><Frequency dt:dt=""r8"">2923105</Frequency><Timestamp dt:dt=""r8"">320386623466</Timestamp><Current dt:dt=""r8"">0</Current><DateUtc dt:dt=""string"">2017-07-13T20:08:32Z</DateUtc></FrequencyChange></FrequencyChanges></Clock>\n",60.004,1,-1735357761,07-13-2017,15:08:32,8:08:32 PM,38,A180704_2T.wav,SHE FOUND her PURSE.,2Talker,TypeSPINProc,StimList,she{SPACE}found{SPACE}her{SPACE}purse{ESCAPE},10360,878432,4,1,38
SPIN,2013,1,"<?xml version=""1.0""?>\n<Clock xmlns:dt=""urn:schemas-microsoft-com:datatypes""><Description dt:dt=""string"">E-Prime Primary Realtime Clock</Description><StartTime><Timestamp dt:dt=""int"">0</Timestamp><DateUtc dt:dt=""string"">2017-07-13T20:08:32Z</DateUtc></StartTime><FrequencyChanges><FrequencyChange><Frequency dt:dt=""r8"">2923105</Frequency><Timestamp dt:dt=""r8"">320386623466</Timestamp><Current dt:dt=""r8"">0</Current><DateUtc dt:dt=""string"">2017-07-13T20:08:32Z</DateUtc></FrequencyChange></FrequencyChanges></Clock>\n",60.004,1,-1735357761,07-13-2017,15:08:32,8:08:32 PM,39,A180916_8T.wav,The CAR HIT a WALL.   ,SSN,TypeSPINProc,StimList,the{SPACE}car{SPACE}hits{SPACE}wall{ESCAPE},14157,894095,32,1,39
SPIN,2013,1,"<?xml version=""1.0""?>\n<Clock xmlns:dt=""urn:schemas-microsoft-com:datatypes""><Description dt:dt=""string"">E-Prime Primary Realtime Clock</Description><StartTime><Timestamp dt:dt=""int"">0</Timestamp><DateUtc dt:dt=""string"">2017-07-13T20:08:32Z</DateUtc></StartTime><FrequencyChanges><FrequencyChange><Frequency dt:dt=""r8"">2923105</Frequency><Timestamp dt:dt=""r8"">320386623466</Timestamp><Current dt:dt=""r8"">0</Current><DateUtc dt:dt=""string"">2017-07-13T20:08:32Z</DateUtc></FrequencyChange></FrequencyChanges></Clock>\n",60.004,1,-1735357761,07-13-2017,15:08:32,8:08:32 PM,40,A180706_2T.wav,MOTHER GOT a SAUCEPAN.,2Talker,TypeSPINProc,StimList,my{SPACE}parent{SPACE}has{SPACE}sister{SPACE}in{SPACE}her{SPACE}family{ESCAPE},24065,919302,6,1,40
SPIN,2013,1,"<?xml version=""1.0""?>\n<Clock xmlns:dt=""urn:schemas-microsoft-com:datatypes""><Description dt:dt=""string"">E-Prime Primary Realtime Clock</Description><StartTime><Timestamp dt:dt=""int"">0</Timestamp><DateUtc dt:dt=""string"">2017-07-13T20:08:32Z</DateUtc></StartTime><FrequencyChanges><FrequencyChange><Frequency dt:dt=""r8"">2923105</Frequency><Timestamp dt:dt=""r8"">320386623466</Timestamp><Current dt:dt=""r8"">0</Current><DateUtc dt:dt=""string"">2017-07-13T20:08:32Z</DateUtc></FrequencyChange></FrequencyChanges></Clock>\n",60.004,1,-1735357761,07-13-2017,15:08:32,8:08:32 PM,41,A181005_SSN.wav,THEY FOLLOWED the PATH.   ,SSN,TypeSPINProc,StimList,they{SPACE}follow{SPACE}the{SPACE}cat{ESCAPE},9034,930669,37,1,41
SPIN,2013,1,"<?xml version=""1.0""?>\n<Clock xmlns:dt=""urn:schemas-microsoft-com:datatypes""><Description dt:dt=""string"">E-Prime Primary Realtime Clock</Description><StartTime><Timestamp dt:dt=""int"">0</Timestamp><DateUtc dt:dt=""string"">2017-07-13T20:08:32Z</DateUtc></StartTime><FrequencyChanges><FrequencyChange><Frequency dt:dt=""r8"">2923105</Frequency><Timestamp dt:dt=""r8"">320386623466</Timestamp><Current dt:dt=""r8"">0</Current><DateUtc dt:dt=""string"">2017-07-13T20:08:32Z</DateUtc></FrequencyChange></FrequencyChanges></Clock>\n",60.004,1,-1735357761,07-13-2017,15:08:32,8:08:32 PM,42,A181504_1T.wav,The SHOP CLOSED for LUNCH.   ,1T,TypeSPINProc,StimList,they{SPACE}drink{SPACE}the{SPACE}orange{SPACE}juice{ESCAPE},12182,945716,52,1,42
SPIN,2013,1,"<?xml version=""1.0""?>\n<Clock xmlns:dt=""urn:schemas-microsoft-com:datatypes""><Description dt:dt=""string"">E-Prime Primary Realtime Clock</Description><StartTime><Timestamp dt:dt=""int"">0</Timestamp><DateUtc dt:dt=""string"">2017-07-13T20:08:32Z</DateUtc></StartTime><FrequencyChanges><FrequencyChange><Frequency dt:dt=""r8"">2923105</Frequency><Timestamp dt:dt=""r8"">320386623466</Timestamp><Current dt:dt=""r8"">0</Current><DateUtc dt:dt=""string"">2017-07-13T20:08:32Z</DateUtc></FrequencyChange></FrequencyChanges></Clock>\n",60.004,1,-1735357761,07-13-2017,15:08:32,8:08:32 PM,43,A180710_2T.wav,THEY had TWO EMPTY BOTTLES.   ,2Talker,TypeSPINProc,StimList,they{SPACE}had{SPACE}two{SPACE}bottles{ESCAPE},18904,965971,10,1,43
SPIN,2013,1,"<?xml version=""1.0""?>\n<Clock xmlns:dt=""urn:schemas-microsoft-com:datatypes""><Description dt:dt=""string"">E-Prime Primary Realtime Clock</Description><StartTime><Timestamp dt:dt=""int"">0</Timestamp><DateUtc dt:dt=""string"">2017-07-13T20:08:32Z</DateUtc></StartTime><FrequencyChanges><FrequencyChange><Frequency dt:dt=""r8"">2923105</Frequency><Timestamp dt:dt=""r8"">320386623466</Timestamp><Current dt:dt=""r8"">0</Current><DateUtc dt:dt=""string"">2017-07-13T20:08:32Z</DateUtc></FrequencyChange></FrequencyChanges></Clock>\n",60.004,1,-1735357761,07-13-2017,15:08:32,8:08:32 PM,44,A180712_2T.wav,FATHER FORGOT the BREAD.   ,2Talker,TypeSPINProc,StimList,the{SPACE}people{SPACE}is{SPACE}rather{SPACE}train{SPACE}the{SPACE}cook{ESCAPE},92001,1083915,12,1,44
SPIN,2013,1,"<?xml version=""1.0""?>\n<Clock xmlns:dt=""urn:schemas-microsoft-com:datatypes""><Description dt:dt=""string"">E-Prime Primary Realtime Clock</Description><StartTime><Timestamp dt:dt=""int"">0</Timestamp><DateUtc dt:dt=""string"">2017-07-13T20:08:32Z</DateUtc></StartTime><FrequencyChanges><FrequencyChange><Frequency dt:dt=""r8"">2923105</Frequency><Timestamp dt:dt=""r8"">320386623466</Timestamp><Current dt:dt=""r8"">0</Current><DateUtc dt:dt=""string"">2017-07-13T20:08:32Z</DateUtc></FrequencyChange></FrequencyChanges></Clock>\n",60.004,1,-1735357761,07-13-2017,15:08:32,8:08:32 PM,45,A181509_1T.wav,THEY MET SOME FRIENDS.   ,1T,TypeSPINProc,StimList,they{SPACE}have{SPACE}some{SPACE}friends{ESCAPE},6818,1092643,57,1,45
SPIN,2013,1,"<?xml version=""1.0""?>\n<Clock xmlns:dt=""urn:schemas-microsoft-com:datatypes""><Description dt:dt=""string"">E-Prime Primary Realtime Clock</Description><StartTime><Timestamp dt:dt=""int"">0</Timestamp><DateUtc dt:dt=""string"">2017-07-13T20:08:32Z</DateUtc></StartTime><FrequencyChanges><FrequencyChange><Frequency dt:dt=""r8"">2923105</Frequency><Timestamp dt:dt=""r8"">320386623466</Timestamp><Current dt:dt=""r8"">0</Current><DateUtc dt:dt=""string"">2017-07-13T20:08:32Z</DateUtc></FrequencyChange></FrequencyChanges></Clock>\n",60.004,1,-1735357761,07-13-2017,15:08:32,8:08:32 PM,46,A181009_SSN.wav,The MAILMAN BROUGHT a LETTER.   ,SSN,TypeSPINProc,StimList,the{SPACE}male{SPACE}is{SPACE}in{SPACE}front{SPACE}of{SPACE}the{SPACE}{ESCAPE},29850,1125441,41,1,46
SPIN,2013,1,"<?xml version=""1.0""?>\n<Clock xmlns:dt=""urn:schemas-microsoft-com:datatypes""><Description dt:dt=""string"">E-Prime Primary Realtime Clock</Description><StartTime><Timestamp dt:dt=""int"">0</Timestamp><DateUtc dt:dt=""string"">2017-07-13T20:08:32Z</DateUtc></StartTime><FrequencyChanges><FrequencyChange><Frequency dt:dt=""r8"">2923105</Frequency><Timestamp dt:dt=""r8"">320386623466</Timestamp><Current dt:dt=""r8"">0</Current><DateUtc dt:dt=""string"">2017-07-13T20:08:32Z</DateUtc></FrequencyChange></FrequencyChanges></Clock>\n",60.004,1,-1735357761,07-13-2017,15:08:32,8:08:32 PM,47,A180907_8T.wav,The FIVE MEN are WORKING.    ,8Talker,TypeSPINProc,StimList,five{SPACE}packages{SPACE}{ESCAPE},9821,1136576,23,1,47
SPIN,2013,1,"<?xml version=""1.0""?>\n<Clock xmlns:dt=""urn:schemas-microsoft-com:datatypes""><Description dt:dt=""string"">E-Prime Primary Realtime Clock</Description><StartTime><Timestamp dt:dt=""int"">0</Timestamp><DateUtc dt:dt=""string"">2017-07-13T20:08:32Z</DateUtc></StartTime><FrequencyChanges><FrequencyChange><Frequency dt:dt=""r8"">2923105</Frequency><Timestamp dt:dt=""r8"">320386623466</Timestamp><Current dt:dt=""r8"">0</Current><DateUtc dt:dt=""string"">2017-07-13T20:08:32Z</DateUtc></FrequencyChange></FrequencyChanges></Clock>\n",60.004,1,-1735357761,07-13-2017,15:08:32,8:08:32 PM,48,A180715_2T.wav,HE is HOLDING his NOSE.   ,2Talker,TypeSPINProc,StimList,around{SPACE}the{SPACE}next{ESCAPE},105589,1243777,15,1,48
SPIN,2013,1,"<?xml version=""1.0""?>\n<Clock xmlns:dt=""urn:schemas-microsoft-com:datatypes""><Description dt:dt=""string"">E-Prime Primary Realtime Clock</Description><StartTime><Timestamp dt:dt=""int"">0</Timestamp><DateUtc dt:dt=""string"">2017-07-13T20:08:32Z</DateUtc></StartTime><FrequencyChanges><FrequencyChange><Frequency dt:dt=""r8"">2923105</Frequency><Timestamp dt:dt=""r8"">320386623466</Timestamp><Current dt:dt=""r8"">0</Current><DateUtc dt:dt=""string"">2017-07-13T20:08:32Z</DateUtc></FrequencyChange></FrequencyChanges></Clock>\n",60.004,1,-1735357761,07-13-2017,15:08:32,8:08:32 PM,49,A181004_SSN.wav,The GOOD BOY is HELPING.   ,SSN,TypeSPINProc,StimList,the{SPACE}good{SPACE}boys{SPACE}helped{SPACE}them{ESCAPE},8563,1252961,36,1,49
SPIN,2013,1,"<?xml version=""1.0""?>\n<Clock xmlns:dt=""urn:schemas-microsoft-com:datatypes""><Description dt:dt=""string"">E-Prime Primary Realtime Clock</Description><StartTime><Timestamp dt:dt=""int"">0</Timestamp><DateUtc dt:dt=""string"">2017-07-13T20:08:32Z</DateUtc></StartTime><FrequencyChanges><FrequencyChange><Frequency dt:dt=""r8"">2923105</Frequency><Timestamp dt:dt=""r8"">320386623466</Timestamp><Current dt:dt=""r8"">0</Current><DateUtc dt:dt=""string"">2017-07-13T20:08:32Z</DateUtc></FrequencyChange></FrequencyChanges></Clock>\n",60.004,1,-1735357761,07-13-2017,15:08:32,8:08:32 PM,50,A180914_8T.wav,The TRAIN is MOVING FAST.   ,SSN,TypeSPINProc,StimList,the{SPACE}trains{SPACE}move{SPACE}fast{ESCAPE},7459,1261824,30,1,50
SPIN,2013,1,"<?xml version=""1.0""?>\n<Clock xmlns:dt=""urn:schemas-microsoft-com:datatypes""><Description dt:dt=""string"">E-Prime Primary Realtime Clock</Description><StartTime><Timestamp dt:dt=""int"">0</Timestamp><DateUtc dt:dt=""string"">2017-07-13T20:08:32Z</DateUtc></StartTime><FrequencyChanges><FrequencyChange><Frequency dt:dt=""r8"">2923105</Frequency><Timestamp dt:dt=""r8"">320386623466</Timestamp><Current dt:dt=""r8"">0</Current><DateUtc dt:dt=""string"">2017-07-13T20:08:32Z</DateUtc></FrequencyChange></FrequencyChanges></Clock>\n",60.004,1,-1735357761,07-13-2017,15:08:32,8:08:32 PM,51,A180703_2T.wav,The FLOOR LOOKED CLEAN. ,2Talker,TypeSPINProc,StimList,people{SPACE}wear{SPACE}the{SPACE}shoes{SPACE}for{SPACE}clean{ESCAPE},10982,1273479,3,1,51
SPIN,2013,1,"<?xml version=""1.0""?>\n<Clock xmlns:dt=""urn:schemas-microsoft-com:datatypes""><Description dt:dt=""string"">E-Prime Primary Realtime Clock</Description><StartTime><Timestamp dt:dt=""int"">0</Timestamp><DateUtc dt:dt=""string"">2017-07-13T20:08:32Z</DateUtc></StartTime><FrequencyChanges><FrequencyChange><Frequency dt:dt=""r8"">2923105</Frequency><Timestamp dt:dt=""r8"">320386623466</Timestamp><Current dt:dt=""r8"">0</Current><DateUtc dt:dt=""string"">2017-07-13T20:08:32Z</DateUtc></FrequencyChange></FrequencyChanges></Clock>\n",60.004,1,-1735357761,07-13-2017,15:08:32,8:08:32 PM,52,A180716_2T.wav,The NEW ROAD is on the MAP.   ,2Talker,TypeSPINProc,StimList,you{SPACE}wrote{SPACE}greek{ESCAPE},61831,1336211,16,1,52
SPIN,2013,1,"<?xml version=""1.0""?>\n<Clock xmlns:dt=""urn:schemas-microsoft-com:datatypes""><Description dt:dt=""string"">E-Prime Primary Realtime Clock</Description><StartTime><Timestamp dt:dt=""int"">0</Timestamp><DateUtc dt:dt=""string"">2017-07-13T20:08:32Z</DateUtc></StartTime><FrequencyChanges><FrequencyChange><Frequency dt:dt=""r8"">2923105</Frequency><Timestamp dt:dt=""r8"">320386623466</Timestamp><Current dt:dt=""r8"">0</Current><DateUtc dt:dt=""string"">2017-07-13T20:08:32Z</DateUtc></FrequencyChange></FrequencyChanges></Clock>\n",60.004,1,-1735357761,07-13-2017,15:08:32,8:08:32 PM,53,A180909_8T.wav,The DISHCLOTH is VERY WET.  ,8Talker,TypeSPINProc,StimList,the{SPACE}dish{SPACE}falls{SPACE}{ESCAPE},9081,1346323,25,1,53
SPIN,2013,1,"<?xml version=""1.0""?>\n<Clock xmlns:dt=""urn:schemas-microsoft-com:datatypes""><Description dt:dt=""string"">E-Prime Primary Realtime Clock</Description><StartTime><Timestamp dt:dt=""int"">0</Timestamp><DateUtc dt:dt=""string"">2017-07-13T20:08:32Z</DateUtc></StartTime><FrequencyChanges><FrequencyChange><Frequency dt:dt=""r8"">2923105</Frequency><Timestamp dt:dt=""r8"">320386623466</Timestamp><Current dt:dt=""r8"">0</Current><DateUtc dt:dt=""string"">2017-07-13T20:08:32Z</DateUtc></FrequencyChange></FrequencyChanges></Clock>\n",60.004,1,-1735357761,07-13-2017,15:08:32,8:08:32 PM,54,A181003_SSN.wav,THEY SAT on a WOODEN BENCH.   ,SSN,TypeSPINProc,StimList,the{SPACE}sander{ESCAPE},75540,1422982,35,1,54
SPIN,2013,1,"<?xml version=""1.0""?>\n<Clock xmlns:dt=""urn:schemas-microsoft-com:datatypes""><Description dt:dt=""string"">E-Prime Primary Realtime Clock</Description><StartTime><Timestamp dt:dt=""int"">0</Timestamp><DateUtc dt:dt=""string"">2017-07-13T20:08:32Z</DateUtc></StartTime><FrequencyChanges><FrequencyChange><Frequency dt:dt=""r8"">2923105</Frequency><Timestamp dt:dt=""r8"">320386623466</Timestamp><Current dt:dt=""r8"">0</Current><DateUtc dt:dt=""string"">2017-07-13T20:08:32Z</DateUtc></FrequencyChange></FrequencyChanges></Clock>\n",60.004,1,-1735357761,07-13-2017,15:08:32,8:08:32 PM,55,A181501_1T.wav,A MAN is TURNING the FAUCET.   ,1T,TypeSPINProc,StimList,man{SPACE}in{SPACE}trees{ESCAPE},18585,1442805,49,1,55
SPIN,2013,1,"<?xml version=""1.0""?>\n<Clock xmlns:dt=""urn:schemas-microsoft-com:datatypes""><Description dt:dt=""string"">E-Prime Primary Realtime Clock</Description><StartTime><Timestamp dt:dt=""int"">0</Timestamp><DateUtc dt:dt=""string"">2017-07-13T20:08:32Z</DateUtc></StartTime><FrequencyChanges><FrequencyChange><Frequency dt:dt=""r8"">2923105</Frequency><Timestamp dt:dt=""r8"">320386623466</Timestamp><Current dt:dt=""r8"">0</Current><DateUtc dt:dt=""string"">2017-07-13T20:08:32Z</DateUtc></FrequencyChange></FrequencyChanges></Clock>\n",60.004,1,-1735357761,07-13-2017,15:08:32,8:08:32 PM,56,A180705_2T.wav,The FRUIT IS on the GROUND.   ,2Talker,TypeSPINProc,StimList,the{SPACE}fruit{SPACE}is{SPACE}on{SPACE}the{SPACE}ground{ESCAPE},7854,1453556,5,1,56
SPIN,2013,1,"<?xml version=""1.0""?>\n<Clock xmlns:dt=""urn:schemas-microsoft-com:datatypes""><Description dt:dt=""string"">E-Prime Primary Realtime Clock</Description><StartTime><Timestamp dt:dt=""int"">0</Timestamp><DateUtc dt:dt=""string"">2017-07-13T20:08:32Z</DateUtc></StartTime><FrequencyChanges><FrequencyChange><Frequency dt:dt=""r8"">2923105</Frequency><Timestamp dt:dt=""r8"">320386623466</Timestamp><Current dt:dt=""r8"">0</Current><DateUtc dt:dt=""string"">2017-07-13T20:08:32Z</DateUtc></FrequencyChange></FrequencyChanges></Clock>\n",60.004,1,-1735357761,07-13-2017,15:08:32,8:08:32 PM,57,A180902_8T.wav,The YOUNG BOY LEFT HOME.   ,8Talker,TypeSPINProc,StimList,the{SPACE}young{SPACE}boy{ESCAPE},5322,1460524,18,1,57
SPIN,2013,1,"<?xml version=""1.0""?>\n<Clock xmlns:dt=""urn:schemas-microsoft-com:datatypes""><Description dt:dt=""string"">E-Prime Primary Realtime Clock</Description><StartTime><Timestamp dt:dt=""int"">0</Timestamp><DateUtc dt:dt=""string"">2017-07-13T20:08:32Z</DateUtc></StartTime><FrequencyChanges><FrequencyChange><Frequency dt:dt=""r8"">2923105</Frequency><Timestamp dt:dt=""r8"">320386623466</Timestamp><Current dt:dt=""r8"">0</Current><DateUtc dt:dt=""string"">2017-07-13T20:08:32Z</DateUtc></FrequencyChange></FrequencyChanges></Clock>\n",60.004,1,-1735357761,07-13-2017,15:08:32,8:08:32 PM,58,A181503_1T.wav,HE is SUCKING his THUMB.   ,1T,TypeSPINProc,StimList,wear{SPACE}my{SPACE}hat{SPACE}or{SPACE}my{SPACE}head{ESCAPE},12932,1474283,51,1,58
SPIN,2013,1,"<?xml version=""1.0""?>\n<Clock xmlns:dt=""urn:schemas-microsoft-com:datatypes""><Description dt:dt=""string"">E-Prime Primary Realtime Clock</Description><StartTime><Timestamp dt:dt=""int"">0</Timestamp><DateUtc dt:dt=""string"">2017-07-13T20:08:32Z</DateUtc></StartTime><FrequencyChanges><FrequencyChange><Frequency dt:dt=""r8"">2923105</Frequency><Timestamp dt:dt=""r8"">320386623466</Timestamp><Current dt:dt=""r8"">0</Current><DateUtc dt:dt=""string"">2017-07-13T20:08:32Z</DateUtc></FrequencyChange></FrequencyChanges></Clock>\n",60.004,1,-1735357761,07-13-2017,15:08:32,8:08:32 PM,59,A181514_1T.wav,MOTHER TIED the STRING.   ,1T,TypeSPINProc,StimList,mother{SPACE}types{SPACE}string{ESCAPE},8904,1484554,62,1,59
SPIN,2013,1,"<?xml version=""1.0""?>\n<Clock xmlns:dt=""urn:schemas-microsoft-com:datatypes""><Description dt:dt=""string"">E-Prime Primary Realtime Clock</Description><StartTime><Timestamp dt:dt=""int"">0</Timestamp><DateUtc dt:dt=""string"">2017-07-13T20:08:32Z</DateUtc></StartTime><FrequencyChanges><FrequencyChange><Frequency dt:dt=""r8"">2923105</Frequency><Timestamp dt:dt=""r8"">320386623466</Timestamp><Current dt:dt=""r8"">0</Current><DateUtc dt:dt=""string"">2017-07-13T20:08:32Z</DateUtc></FrequencyChange></FrequencyChanges></Clock>\n",60.004,1,-1735357761,07-13-2017,15:08:32,8:08:32 PM,60,A181505_1T.wav,The DRIVER STARTED the ENGINE.   ,1T,TypeSPINProc,StimList,people{SPACE}wear{SPACE}the{SPACE}shoes{ESCAPE},9137,1495737,53,1,60
SPIN,2013,1,"<?xml version=""1.0""?>\n<Clock xmlns:dt=""urn:schemas-microsoft-com:datatypes""><Description dt:dt=""string"">E-Prime Primary Realtime Clock</Description><StartTime><Timestamp dt:dt=""int"">0</Timestamp><DateUtc dt:dt=""string"">2017-07-13T20:08:32Z</DateUtc></StartTime><FrequencyChanges><FrequencyChange><Frequency dt:dt=""r8"">2923105</Frequency><Timestamp dt:dt=""r8"">320386623466</Timestamp><Current dt:dt=""r8"">0</Current><DateUtc dt:dt=""string"">2017-07-13T20:08:32Z</DateUtc></FrequencyChange></FrequencyChanges></Clock>\n",60.004,1,-1735357761,07-13-2017,15:08:32,8:08:32 PM,61,A181011_SSN.wav,HE BROKE his LEG.   ,SSN,TypeSPINProc,StimList,book{SPACE}light{ESCAPE},6323,1503705,43,1,61
SPIN,2013,1,"<?xml version=""1.0""?>\n<Clock xmlns:dt=""urn:schemas-microsoft-com:datatypes""><Description dt:dt=""string"">E-Prime Primary Realtime Clock</Description><StartTime><Timestamp dt:dt=""int"">0</Timestamp><DateUtc dt:dt=""string"">2017-07-13T20:08:32Z</DateUtc></StartTime><FrequencyChanges><FrequencyChange><Frequency dt:dt=""r8"">2923105</Frequency><Timestamp dt:dt=""r8"">320386623466</Timestamp><Current dt:dt=""r8"">0</Current><DateUtc dt:dt=""string"">2017-07-13T20:08:32Z</DateUtc></FrequencyChange></FrequencyChanges></Clock>\n",60.004,1,-1735357761,07-13-2017,15:08:32,8:08:32 PM,62,A181008_SSN.wav,SOMEONE is CROSSING the ROAD.   ,SSN,TypeSPINProc,StimList,someone{SPACE}is{SPACE}crossing{SPACE}the{SPACE}road{ESCAPE},8991,1513256,40,1,62
SPIN,2013,1,"<?xml version=""1.0""?>\n<Clock xmlns:dt=""urn:schemas-microsoft-com:datatypes""><Description dt:dt=""string"">E-Prime Primary Realtime Clock</Description><StartTime><Timestamp dt:dt=""int"">0</Timestamp><DateUtc dt:dt=""string"">2017-07-13T20:08:32Z</DateUtc></StartTime><FrequencyChanges><FrequencyChange><Frequency dt:dt=""r8"">2923105</Frequency><Timestamp dt:dt=""r8"">320386623466</Timestamp><Current dt:dt=""r8"">0</Current><DateUtc dt:dt=""string"">2017-07-13T20:08:32Z</DateUtc></FrequencyChange></FrequencyChanges></Clock>\n",60.004,1,-1735357761,07-13-2017,15:08:32,8:08:32 PM,63,A180904_8T.wav,SHE STOOD near her WINDOW.   ,8Talker,TypeSPINProc,StimList,a{SPACE}ring{ESCAPE},6038,1519736,20,1,63
SPIN,2013,1,"<?xml version=""1.0""?>\n<Clock xmlns:dt=""urn:schemas-microsoft-com:datatypes""><Description dt:dt=""string"">E-Prime Primary Realtime Clock</Description><StartTime><Timestamp dt:dt=""int"">0</Timestamp><DateUtc dt:dt=""string"">2017-07-13T20:08:32Z</DateUtc></StartTime><FrequencyChanges><FrequencyChange><Frequency dt:dt=""r8"">2923105</Frequency><Timestamp dt:dt=""r8"">320386623466</Timestamp><Current dt:dt=""r8"">0</Current><DateUtc dt:dt=""string"">2017-07-13T20:08:32Z</DateUtc></FrequencyChange></FrequencyChanges></Clock>\n",60.004,1,-1735357761,07-13-2017,15:08:32,8:08:32 PM,64,A180901_8T.wav,The BOOK TELLS a STORY.   ,8Talker,TypeSPINProc,StimList,the{SPACE}book{SPACE}tells{SPACE}story{ESCAPE},7251,1528015,17,1,64