ExperimentName,Subject,Session,Clock.Information,Display.RefreshRate,Group,RandomSeed,SessionDate,SessionTime,SessionTimeUtc,Block,Filename,FileText,Noise,Procedure,Running,Slide1.RESP,Slide1.RT,Slide1.RTTime,StimList,StimList.Cycle,StimList.Sample
SPIN,2023,1,"<?xml version=""1.0""?>\n<Clock xmlns:dt=""urn:schemas-microsoft-com:datatypes""><Description dt:dt=""string"">E-Prime Primary Realtime Clock</Description><StartTime><Timestamp dt:dt=""int"">0</Timestamp><DateUtc dt:dt=""string"">2017-07-17T15:03:29Z</DateUtc></StartTime><FrequencyChanges><FrequencyChange><Frequency dt:dt=""r8"">2923105</Frequency><Timestamp dt:dt=""r8"">1277039732913</Timestamp><Current dt:dt=""r8"">0</Current><DateUtc dt:dt=""string"">2017-07-17T15:03:29Z</DateUtc></FrequencyChange></FrequencyChanges></Clock>\n",60.004,1,1435023571,07-17-2017,10:03:30,3:03:30 PM,1,A181510_1T.wav,The RAINCOAT is HANGING UP.  ,1T,TypeSPINProc,StimList,{SHIFT}Monday{SPACE}is{SPACE}the{SPACE}first{ESCAPE},29159,111628,58,1,1
SPIN,2023,1,"<?xml version=""1.0""?>\n<Clock xmlns:dt=""urn:schemas-microsoft-com:datatypes""><Description dt:dt=""string"">E-Prime Primary Realtime Clock</Description><StartTime><Timestamp dt:dt=""int"">0</Timestamp><DateUtc dt:dt=""string"">2017-07-17T15:03:29Z</DateUtc></StartTime><FrequencyChanges><FrequencyChange><Frequency dt:dt=""r8"">2923105</Frequency><Timestamp dt:dt=""r8"">1277039732913</Timestamp><Current dt:dt=""r8"">0</Current><DateUtc dt:dt=""string"">2017-07-17T15:03:29Z</DateUtc></FrequencyChange></FrequencyChanges></Clock>\n",60.004,1,1435023571,07-17-2017,10:03:30,3:03:30 PM,2,A180911_8T.wav,The BABY BROKE his CUP.   ,8Talker,TypeSPINProc,StimList,{SHIFT}What{'}s{SHIFT}{?}{ESCAPE},25590,139490,27,1,2
SPIN,2023,1,"<?xml version=""1.0""?>\n<Clock xmlns:dt=""urn:schemas-microsoft-com:datatypes""><Description dt:dt=""string"">E-Prime Primary Realtime Clock</Description><StartTime><Timestamp dt:dt=""int"">0</Timestamp><DateUtc dt:dt=""string"">2017-07-17T15:03:29Z</DateUtc></StartTime><FrequencyChanges><FrequencyChange><Frequency dt:dt=""r8"">2923105</Frequency><Timestamp dt:dt=""r8"">1277039732913</Timestamp><Current dt:dt=""r8"">0</Current><DateUtc dt:dt=""string"">2017-07-17T15:03:29Z</DateUtc></FrequencyChange></FrequencyChanges></Clock>\n",60.004,1,1435023571,07-17-2017,10:03:30,3:03:30 PM,3,A180707_2T.wav,THEY WASHED in COLD WATER.   ,2Talker,TypeSPINProc,StimList,{SHIFT}Test{ESCAPE},16993,157841,7,1,3
SPIN,2023,1,"<?xml version=""1.0""?>\n<Clock xmlns:dt=""urn:schemas-microsoft-com:datatypes""><Description dt:dt=""string"">E-Prime Primary Realtime Clock</Description><StartTime><Timestamp dt:dt=""int"">0</Timestamp><DateUtc dt:dt=""string"">2017-07-17T15:03:29Z</DateUtc></StartTime><FrequencyChanges><FrequencyChange><Frequency dt:dt=""r8"">2923105</Frequency><Timestamp dt:dt=""r8"">1277039732913</Timestamp><Current dt:dt=""r8"">0</Current><DateUtc dt:dt=""string"">2017-07-17T15:03:29Z</DateUtc></FrequencyChange></FrequencyChanges></Clock>\n",60.004,1,1435023571,07-17-2017,10:03:30,3:03:30 PM,4,A180706_2T.wav,MOTHER GOT a SAUCEPAN.,2Talker,TypeSPINProc,StimList,{SHIFT}their{SPACE}parents{SPACE}and{SPACE}family{ESCAPE},14370,173184,6,1,4
SPIN,2023,1,"<?xml version=""1.0""?>\n<Clock xmlns:dt=""urn:schemas-microsoft-com:datatypes""><Description dt:dt=""string"">E-Prime Primary Realtime Clock</Description><StartTime><Timestamp dt:dt=""int"">0</Timestamp><DateUtc dt:dt=""string"">2017-07-17T15:03:29Z</DateUtc></StartTime><FrequencyChanges><FrequencyChange><Frequency dt:dt=""r8"">2923105</Frequency><Timestamp dt:dt=""r8"">1277039732913</Timestamp><Current dt:dt=""r8"">0</Current><DateUtc dt:dt=""string"">2017-07-17T15:03:29Z</DateUtc></FrequencyChange></FrequencyChanges></Clock>\n",60.004,1,1435023571,07-17-2017,10:03:30,3:03:30 PM,5,A180914_8T.wav,The TRAIN is MOVING FAST.   ,SSN,TypeSPINProc,StimList,the{SPACE}train{SPACE}is{SPACE}moving{SPACE}fast{ESCAPE},5893,180223,30,1,5
SPIN,2023,1,"<?xml version=""1.0""?>\n<Clock xmlns:dt=""urn:schemas-microsoft-com:datatypes""><Description dt:dt=""string"">E-Prime Primary Realtime Clock</Description><StartTime><Timestamp dt:dt=""int"">0</Timestamp><DateUtc dt:dt=""string"">2017-07-17T15:03:29Z</DateUtc></StartTime><FrequencyChanges><FrequencyChange><Frequency dt:dt=""r8"">2923105</Frequency><Timestamp dt:dt=""r8"">1277039732913</Timestamp><Current dt:dt=""r8"">0</Current><DateUtc dt:dt=""string"">2017-07-17T15:03:29Z</DateUtc></FrequencyChange></FrequencyChanges></Clock>\n",60.004,1,1435023571,07-17-2017,10:03:30,3:03:30 PM,6,A181514_1T.wav,MOTHER TIED the STRING.   ,1T,TypeSPINProc,StimList,{SHIFT}Mother{SPACE}{SHIFT}Tang{SPACE}is{SPACE}strict{ESCAPE},19353,200366,62,1,6
SPIN,2023,1,"<?xml version=""1.0""?>\n<Clock xmlns:dt=""urn:schemas-microsoft-com:datatypes""><Description dt:dt=""string"">E-Prime Primary Realtime Clock</Description><StartTime><Timestamp dt:dt=""int"">0</Timestamp><DateUtc dt:dt=""string"">2017-07-17T15:03:29Z</DateUtc></StartTime><FrequencyChanges><FrequencyChange><Frequency dt:dt=""r8"">2923105</Frequency><Timestamp dt:dt=""r8"">1277039732913</Timestamp><Current dt:dt=""r8"">0</Current><DateUtc dt:dt=""string"">2017-07-17T15:03:29Z</DateUtc></FrequencyChange></FrequencyChanges></Clock>\n",60.004,1,1435023571,07-17-2017,10:03:30,3:03:30 PM,7,A181012_SSN.wav,The MILK was by the FRONT DOOR.   ,SSN,TypeSPINProc,StimList,the{SPACE}local{SPACE}is{SPACE}fine{.}{.}{.}{ESCAPE},35668,236996,44,1,7
SPIN,2023,1,"<?xml version=""1.0""?>\n<Clock xmlns:dt=""urn:schemas-microsoft-com:datatypes""><Description dt:dt=""string"">E-Prime Primary Realtime Clock</Description><StartTime><Timestamp dt:dt=""int"">0</Timestamp><DateUtc dt:dt=""string"">2017-07-17T15:03:29Z</DateUtc></StartTime><FrequencyChanges><FrequencyChange><Frequency dt:dt=""r8"">2923105</Frequency><Timestamp dt:dt=""r8"">1277039732913</Timestamp><Current dt:dt=""r8"">0</Current><DateUtc dt:dt=""string"">2017-07-17T15:03:29Z</DateUtc></FrequencyChange></FrequencyChanges></Clock>\n",60.004,1,1435023571,07-17-2017,10:03:30,3:03:30 PM,8,A181502_1T.wav,The OVEN is TOO HOT.,1T,TypeSPINProc,StimList,{SHIFT}Monday{SPACE}is{SPACE}the{SPACE}first{SPACE}day{SPACE}of{SPACE}a{SPACE}week{ESCAPE},8820,246379,50,1,8
SPIN,2023,1,"<?xml version=""1.0""?>\n<Clock xmlns:dt=""urn:schemas-microsoft-com:datatypes""><Description dt:dt=""string"">E-Prime Primary Realtime Clock</Description><StartTime><Timestamp dt:dt=""int"">0</Timestamp><DateUtc dt:dt=""string"">2017-07-17T15:03:29Z</DateUtc></StartTime><FrequencyChanges><FrequencyChange><Frequency dt:dt=""r8"">2923105</Frequency><Timestamp dt:dt=""r8"">1277039732913</Timestamp><Current dt:dt=""r8"">0</Current><DateUtc dt:dt=""string"">2017-07-17T15:03:29Z</DateUtc></FrequencyChange></FrequencyChanges></Clock>\n",60.004,1,1435023571,07-17-2017,10:03:30,3:03:30 PM,9,A181504_1T.wav,The SHOP CLOSED for LUNCH.   ,1T,TypeSPINProc,StimList,{SHIFT}Drinks{SPACE}more{SPACE}than{SPACE}juice{ESCAPE},12660,260018,52,1,9
SPIN,2023,1,"<?xml version=""1.0""?>\n<Clock xmlns:dt=""urn:schemas-microsoft-com:datatypes""><Description dt:dt=""string"">E-Prime Primary Realtime Clock</Description><StartTime><Timestamp dt:dt=""int"">0</Timestamp><DateUtc dt:dt=""string"">2017-07-17T15:03:29Z</DateUtc></StartTime><FrequencyChanges><FrequencyChange><Frequency dt:dt=""r8"">2923105</Frequency><Timestamp dt:dt=""r8"">1277039732913</Timestamp><Current dt:dt=""r8"">0</Current><DateUtc dt:dt=""string"">2017-07-17T15:03:29Z</DateUtc></FrequencyChange></FrequencyChanges></Clock>\n",60.004,1,1435023571,07-17-2017,10:03:30,3:03:30 PM,10,A180904_8T.wav,SHE STOOD near her WINDOW.   ,8Talker,TypeSPINProc,StimList,{SHIFT}xxx{ESCAPE},9102,269626,20,1,10
SPIN,2023,1,"<?xml version=""1.0""?>\n<Clock xmlns:dt=""urn:schemas-microsoft-com:datatypes""><Description dt:dt=""string"">E-Prime Primary Realtime Clock</Description><StartTime><Timestamp dt:dt=""int"">0</Timestamp><DateUtc dt:dt=""string"">2017-07-17T15:03:29Z</DateUtc></StartTime><FrequencyChanges><FrequencyChange><Frequency dt:dt=""r8"">2923105</Frequency><Timestamp dt:dt=""r8"">1277039732913</Timestamp><Current dt:dt=""r8"">0</Current><DateUtc dt:dt=""string"">2017-07-17T15:03:29Z</DateUtc></FrequencyChange></FrequencyChanges></Clock>\n",60.004,1,1435023571,07-17-2017,10:03:30,3:03:30 PM,11,A180902_8T.wav,The YOUNG BOY LEFT HOME.   ,8Talker,TypeSPINProc,StimList,xxx{ESCAPE},11075,281649,18,1,11
SPIN,2023,1,"<?xml version=""1.0""?>\n<Clock xmlns:dt=""urn:schemas-microsoft-com:datatypes""><Description dt:dt=""string"">E-Prime Primary Realtime Clock</Description><StartTime><Timestamp dt:dt=""int"">0</Timestamp><DateUtc dt:dt=""string"">2017-07-17T15:03:29Z</DateUtc></StartTime><FrequencyChanges><FrequencyChange><Frequency dt:dt=""r8"">2923105</Frequency><Timestamp dt:dt=""r8"">1277039732913</Timestamp><Current dt:dt=""r8"">0</Current><DateUtc dt:dt=""string"">2017-07-17T15:03:29Z</DateUtc></FrequencyChange></FrequencyChanges></Clock>\n",60.004,1,1435023571,07-17-2017,10:03:30,3:03:30 PM,12,A181005_SSN.wav,THEY FOLLOWED the PATH.   ,SSN,TypeSPINProc,StimList,xxx{ESCAPE},12875,296264,37,1,12
SPIN,2023,1,"<?xml version=""1.0""?>\n<Clock xmlns:dt=""urn:schemas-microsoft-com:datatypes""><Description dt:dt=""string"">E-Prime Primary Realtime Clock</Description><StartTime><Timestamp dt:dt=""int"">0</Timestamp><DateUtc dt:dt=""string"">2017-07-17T15:03:29Z</DateUtc></StartTime><FrequencyChanges><FrequencyChange><Frequency dt:dt=""r8"">2923105</Frequency><Timestamp dt:dt=""r8"">1277039732913</Timestamp><Current dt:dt=""r8"">0</Current><DateUtc dt:dt=""string"">2017-07-17T15:03:29Z</DateUtc></FrequencyChange></FrequencyChanges></Clock>\n",60.004,1,1435023571,07-17-2017,10:03:30,3:03:30 PM,13,A180702_2T.wav,The DOG CAME BACK.   ,2Talker,TypeSPINProc,StimList,last{SPACE}night{.}{.}{.}wolf{SPACE}dropped{.}{.}{.}{ESCAPE},32703,330158,2,1,13
SPIN,2023,1,"<?xml version=""1.0""?>\n<Clock xmlns:dt=""urn:schemas-microsoft-com:datatypes""><Description dt:dt=""string"">E-Prime Primary Realtime Clock</Description><StartTime><Timestamp dt:dt=""int"">0</Timestamp><DateUtc dt:dt=""string"">2017-07-17T15:03:29Z</DateUtc></StartTime><FrequencyChanges><FrequencyChange><Frequency dt:dt=""r8"">2923105</Frequency><Timestamp dt:dt=""r8"">1277039732913</Timestamp><Current dt:dt=""r8"">0</Current><DateUtc dt:dt=""string"">2017-07-17T15:03:29Z</DateUtc></FrequencyChange></FrequencyChanges></Clock>\n",60.004,1,1435023571,07-17-2017,10:03:30,3:03:30 PM,14,A181014_SSN.wav,The GROUND was VERY HARD.   ,SSN,TypeSPINProc,StimList,{LEFTARROW}{SHIFT}Round{SPACE}is{SPACE}very{SPACE}hard{ESCAPE},32408,363428,46,1,14
SPIN,2023,1,"<?xml version=""1.0""?>\n<Clock xmlns:dt=""urn:schemas-microsoft-com:datatypes""><Description dt:dt=""string"">E-Prime Primary Realtime Clock</Description><StartTime><Timestamp dt:dt=""int"">0</Timestamp><DateUtc dt:dt=""string"">2017-07-17T15:03:29Z</DateUtc></StartTime><FrequencyChanges><FrequencyChange><Frequency dt:dt=""r8"">2923105</Frequency><Timestamp dt:dt=""r8"">1277039732913</Timestamp><Current dt:dt=""r8"">0</Current><DateUtc dt:dt=""string"">2017-07-17T15:03:29Z</DateUtc></FrequencyChange></FrequencyChanges></Clock>\n",60.004,1,1435023571,07-17-2017,10:03:30,3:03:30 PM,15,A181004_SSN.wav,The GOOD BOY is HELPING.   ,SSN,TypeSPINProc,StimList,little{SPACE}boy{SPACE}told{SPACE}me{ESCAPE},9183,373251,36,1,15
SPIN,2023,1,"<?xml version=""1.0""?>\n<Clock xmlns:dt=""urn:schemas-microsoft-com:datatypes""><Description dt:dt=""string"">E-Prime Primary Realtime Clock</Description><StartTime><Timestamp dt:dt=""int"">0</Timestamp><DateUtc dt:dt=""string"">2017-07-17T15:03:29Z</DateUtc></StartTime><FrequencyChanges><FrequencyChange><Frequency dt:dt=""r8"">2923105</Frequency><Timestamp dt:dt=""r8"">1277039732913</Timestamp><Current dt:dt=""r8"">0</Current><DateUtc dt:dt=""string"">2017-07-17T15:03:29Z</DateUtc></FrequencyChange></FrequencyChanges></Clock>\n",60.004,1,1435023571,07-17-2017,10:03:30,3:03:30 PM,16,A181010_SSN.wav,THEY are RIDING their BICYCLES.   ,SSN,TypeSPINProc,StimList,they{SPACE}are{SPACE}writing{SPACE}their{SPACE}recipes{ESCAPE},19358,393058,42,1,16
SPIN,2023,1,"<?xml version=""1.0""?>\n<Clock xmlns:dt=""urn:schemas-microsoft-com:datatypes""><Description dt:dt=""string"">E-Prime Primary Realtime Clock</Description><StartTime><Timestamp dt:dt=""int"">0</Timestamp><DateUtc dt:dt=""string"">2017-07-17T15:03:29Z</DateUtc></StartTime><FrequencyChanges><FrequencyChange><Frequency dt:dt=""r8"">2923105</Frequency><Timestamp dt:dt=""r8"">1277039732913</Timestamp><Current dt:dt=""r8"">0</Current><DateUtc dt:dt=""string"">2017-07-17T15:03:29Z</DateUtc></FrequencyChange></FrequencyChanges></Clock>\n",60.004,1,1435023571,07-17-2017,10:03:30,3:03:30 PM,17,A180708_2T.wav,The YOUNG PEOPLE are DANCING.,2Talker,TypeSPINProc,StimList,have{SPACE}you{.}{.}dancing{SPACE}class{SHIFT}{?}{ESCAPE},14685,408401,8,1,17
SPIN,2023,1,"<?xml version=""1.0""?>\n<Clock xmlns:dt=""urn:schemas-microsoft-com:datatypes""><Description dt:dt=""string"">E-Prime Primary Realtime Clock</Description><StartTime><Timestamp dt:dt=""int"">0</Timestamp><DateUtc dt:dt=""string"">2017-07-17T15:03:29Z</DateUtc></StartTime><FrequencyChanges><FrequencyChange><Frequency dt:dt=""r8"">2923105</Frequency><Timestamp dt:dt=""r8"">1277039732913</Timestamp><Current dt:dt=""r8"">0</Current><DateUtc dt:dt=""string"">2017-07-17T15:03:29Z</DateUtc></FrequencyChange></FrequencyChanges></Clock>\n",60.004,1,1435023571,07-17-2017,10:03:30,3:03:30 PM,18,A181508_1T.wav,SHE BUMPED her HEAD.   ,1T,TypeSPINProc,StimList,many{SPACE}people{SPACE}want{SPACE}to{SPACE}start{SPACE}today{ESCAPE},11834,420816,56,1,18
SPIN,2023,1,"<?xml version=""1.0""?>\n<Clock xmlns:dt=""urn:schemas-microsoft-com:datatypes""><Description dt:dt=""string"">E-Prime Primary Realtime Clock</Description><StartTime><Timestamp dt:dt=""int"">0</Timestamp><DateUtc dt:dt=""string"">2017-07-17T15:03:29Z</DateUtc></StartTime><FrequencyChanges><FrequencyChange><Frequency dt:dt=""r8"">2923105</Frequency><Timestamp dt:dt=""r8"">1277039732913</Timestamp><Current dt:dt=""r8"">0</Current><DateUtc dt:dt=""string"">2017-07-17T15:03:29Z</DateUtc></FrequencyChange></FrequencyChanges></Clock>\n",60.004,1,1435023571,07-17-2017,10:03:30,3:03:30 PM,19,A181511_1T.wav,The TINY BABY was PRETTY.   ,1T,TypeSPINProc,StimList,watch{.}{.}elephant{ESCAPE},12128,433575,59,1,19
SPIN,2023,1,"<?xml version=""1.0""?>\n<Clock xmlns:dt=""urn:schemas-microsoft-com:datatypes""><Description dt:dt=""string"">E-Prime Primary Realtime Clock</Description><StartTime><Timestamp dt:dt=""int"">0</Timestamp><DateUtc dt:dt=""string"">2017-07-17T15:03:29Z</DateUtc></StartTime><FrequencyChanges><FrequencyChange><Frequency dt:dt=""r8"">2923105</Frequency><Timestamp dt:dt=""r8"">1277039732913</Timestamp><Current dt:dt=""r8"">0</Current><DateUtc dt:dt=""string"">2017-07-17T15:03:29Z</DateUtc></FrequencyChange></FrequencyChanges></Clock>\n",60.004,1,1435023571,07-17-2017,10:03:30,3:03:30 PM,20,A180704_2T.wav,SHE FOUND her PURSE.,2Talker,TypeSPINProc,StimList,she{SPACE}found{SPACE}her{SPACE}in{SPACE}screen{ESCAPE},14221,448518,4,1,20
SPIN,2023,1,"<?xml version=""1.0""?>\n<Clock xmlns:dt=""urn:schemas-microsoft-com:datatypes""><Description dt:dt=""string"">E-Prime Primary Realtime Clock</Description><StartTime><Timestamp dt:dt=""int"">0</Timestamp><DateUtc dt:dt=""string"">2017-07-17T15:03:29Z</DateUtc></StartTime><FrequencyChanges><FrequencyChange><Frequency dt:dt=""r8"">2923105</Frequency><Timestamp dt:dt=""r8"">1277039732913</Timestamp><Current dt:dt=""r8"">0</Current><DateUtc dt:dt=""string"">2017-07-17T15:03:29Z</DateUtc></FrequencyChange></FrequencyChanges></Clock>\n",60.004,1,1435023571,07-17-2017,10:03:30,3:03:30 PM,21,A180916_8T.wav,The CAR HIT a WALL.   ,SSN,TypeSPINProc,StimList,coffee{SPACE}or{SPACE}water{SHIFT}{?}{ESCAPE},6756,456302,32,1,21
SPIN,2023,1,"<?xml version=""1.0""?>\n<Clock xmlns:dt=""urn:schemas-microsoft-com:datatypes""><Description dt:dt=""string"">E-Prime Primary Realtime Clock</Description><StartTime><Timestamp dt:dt=""int"">0</Timestamp><DateUtc dt:dt=""string"">2017-07-17T15:03:29Z</DateUtc></StartTime><FrequencyChanges><FrequencyChange><Frequency dt:dt=""r8"">2923105</Frequency><Timestamp dt:dt=""r8"">1277039732913</Timestamp><Current dt:dt=""r8"">0</Current><DateUtc dt:dt=""string"">2017-07-17T15:03:29Z</DateUtc></FrequencyChange></FrequencyChanges></Clock>\n",60.004,1,1435023571,07-17-2017,10:03:30,3:03:30 PM,22,A180903_8T.wav,THEY are CLIMBING the TREE.   ,8Talker,TypeSPINProc,StimList,climbing{SHIFT}{?}{SPACE}{SHIFT}Aloud{SHIFT}{?}{ESCAPE},11438,468333,19,1,22
SPIN,2023,1,"<?xml version=""1.0""?>\n<Clock xmlns:dt=""urn:schemas-microsoft-com:datatypes""><Description dt:dt=""string"">E-Prime Primary Realtime Clock</Description><StartTime><Timestamp dt:dt=""int"">0</Timestamp><DateUtc dt:dt=""string"">2017-07-17T15:03:29Z</DateUtc></StartTime><FrequencyChanges><FrequencyChange><Frequency dt:dt=""r8"">2923105</Frequency><Timestamp dt:dt=""r8"">1277039732913</Timestamp><Current dt:dt=""r8"">0</Current><DateUtc dt:dt=""string"">2017-07-17T15:03:29Z</DateUtc></FrequencyChange></FrequencyChanges></Clock>\n",60.004,1,1435023571,07-17-2017,10:03:30,3:03:30 PM,23,A181501_1T.wav,A MAN is TURNING the FAUCET.   ,1T,TypeSPINProc,StimList,birds{SPACE}are{SPACE}the{SPACE}first{SPACE}entrance{ESCAPE},15922,484700,49,1,23
SPIN,2023,1,"<?xml version=""1.0""?>\n<Clock xmlns:dt=""urn:schemas-microsoft-com:datatypes""><Description dt:dt=""string"">E-Prime Primary Realtime Clock</Description><StartTime><Timestamp dt:dt=""int"">0</Timestamp><DateUtc dt:dt=""string"">2017-07-17T15:03:29Z</DateUtc></StartTime><FrequencyChanges><FrequencyChange><Frequency dt:dt=""r8"">2923105</Frequency><Timestamp dt:dt=""r8"">1277039732913</Timestamp><Current dt:dt=""r8"">0</Current><DateUtc dt:dt=""string"">2017-07-17T15:03:29Z</DateUtc></FrequencyChange></FrequencyChanges></Clock>\n",60.004,1,1435023571,07-17-2017,10:03:30,3:03:30 PM,24,A181506_1T.wav,The BOY HURRIED to SCHOOL.   ,1T,TypeSPINProc,StimList,elephant{SPACE}is{SPACE}a{SPACE}big{SPACE}fan{SPACE}for{SPACE}dissert{ESCAPE},17429,502539,54,1,24
SPIN,2023,1,"<?xml version=""1.0""?>\n<Clock xmlns:dt=""urn:schemas-microsoft-com:datatypes""><Description dt:dt=""string"">E-Prime Primary Realtime Clock</Description><StartTime><Timestamp dt:dt=""int"">0</Timestamp><DateUtc dt:dt=""string"">2017-07-17T15:03:29Z</DateUtc></StartTime><FrequencyChanges><FrequencyChange><Frequency dt:dt=""r8"">2923105</Frequency><Timestamp dt:dt=""r8"">1277039732913</Timestamp><Current dt:dt=""r8"">0</Current><DateUtc dt:dt=""string"">2017-07-17T15:03:29Z</DateUtc></FrequencyChange></FrequencyChanges></Clock>\n",60.004,1,1435023571,07-17-2017,10:03:30,3:03:30 PM,25,A180908_8T.wav,HE LISTENED TO his FATHER.   ,SSN,TypeSPINProc,StimList,you{SPACE}listen{SPACE}to{SPACE}this{.}{.}{ESCAPE},7095,510171,24,1,25
SPIN,2023,1,"<?xml version=""1.0""?>\n<Clock xmlns:dt=""urn:schemas-microsoft-com:datatypes""><Description dt:dt=""string"">E-Prime Primary Realtime Clock</Description><StartTime><Timestamp dt:dt=""int"">0</Timestamp><DateUtc dt:dt=""string"">2017-07-17T15:03:29Z</DateUtc></StartTime><FrequencyChanges><FrequencyChange><Frequency dt:dt=""r8"">2923105</Frequency><Timestamp dt:dt=""r8"">1277039732913</Timestamp><Current dt:dt=""r8"">0</Current><DateUtc dt:dt=""string"">2017-07-17T15:03:29Z</DateUtc></FrequencyChange></FrequencyChanges></Clock>\n",60.004,1,1435023571,07-17-2017,10:03:30,3:03:30 PM,26,A180705_2T.wav,The FRUIT IS on the GROUND.   ,2Talker,TypeSPINProc,StimList,on{SPACE}the{SPACE}ground{SHIFT}{?}{SPACE}dissert{SHIFT}{?}{ESCAPE},13534,524242,5,1,26
SPIN,2023,1,"<?xml version=""1.0""?>\n<Clock xmlns:dt=""urn:schemas-microsoft-com:datatypes""><Description dt:dt=""string"">E-Prime Primary Realtime Clock</Description><StartTime><Timestamp dt:dt=""int"">0</Timestamp><DateUtc dt:dt=""string"">2017-07-17T15:03:29Z</DateUtc></StartTime><FrequencyChanges><FrequencyChange><Frequency dt:dt=""r8"">2923105</Frequency><Timestamp dt:dt=""r8"">1277039732913</Timestamp><Current dt:dt=""r8"">0</Current><DateUtc dt:dt=""string"">2017-07-17T15:03:29Z</DateUtc></FrequencyChange></FrequencyChanges></Clock>\n",60.004,1,1435023571,07-17-2017,10:03:30,3:03:30 PM,27,A181006_SSN.wav,The KITCHEN CLOCK was WRONG.   ,SSN,TypeSPINProc,StimList,kitchen{SPACE}plot{SPACE}is{SPACE}wrong{SHIFT}{.}{ESCAPE},11438,536129,38,1,27
SPIN,2023,1,"<?xml version=""1.0""?>\n<Clock xmlns:dt=""urn:schemas-microsoft-com:datatypes""><Description dt:dt=""string"">E-Prime Primary Realtime Clock</Description><StartTime><Timestamp dt:dt=""int"">0</Timestamp><DateUtc dt:dt=""string"">2017-07-17T15:03:29Z</DateUtc></StartTime><FrequencyChanges><FrequencyChange><Frequency dt:dt=""r8"">2923105</Frequency><Timestamp dt:dt=""r8"">1277039732913</Timestamp><Current dt:dt=""r8"">0</Current><DateUtc dt:dt=""string"">2017-07-17T15:03:29Z</DateUtc></FrequencyChange></FrequencyChanges></Clock>\n",60.004,1,1435023571,07-17-2017,10:03:30,3:03:30 PM,28,A180716_2T.wav,The NEW ROAD is on the MAP.   ,2Talker,TypeSPINProc,StimList,they{SPACE}are{SPACE}not{.}{ESCAPE},11002,547592,16,1,28
SPIN,2023,1,"<?xml version=""1.0""?>\n<Clock xmlns:dt=""urn:schemas-microsoft-com:datatypes""><Description dt:dt=""string"">E-Prime Primary Realtime Clock</Description><StartTime><Timestamp dt:dt=""int"">0</Timestamp><DateUtc dt:dt=""string"">2017-07-17T15:03:29Z</DateUtc></StartTime><FrequencyChanges><FrequencyChange><Frequency dt:dt=""r8"">2923105</Frequency><Timestamp dt:dt=""r8"">1277039732913</Timestamp><Current dt:dt=""r8"">0</Current><DateUtc dt:dt=""string"">2017-07-17T15:03:29Z</DateUtc></FrequencyChange></FrequencyChanges></Clock>\n",60.004,1,1435023571,07-17-2017,10:03:30,3:03:30 PM,29,A181015_SSN.wav,The BUCKETS HOLD WATER.   ,SSN,TypeSPINProc,StimList,the{SPACE}basketball{/}pocket{SHIFT}{?}{.}{.}{.}{ESCAPE},11882,560471,47,1,29
SPIN,2023,1,"<?xml version=""1.0""?>\n<Clock xmlns:dt=""urn:schemas-microsoft-com:datatypes""><Description dt:dt=""string"">E-Prime Primary Realtime Clock</Description><StartTime><Timestamp dt:dt=""int"">0</Timestamp><DateUtc dt:dt=""string"">2017-07-17T15:03:29Z</DateUtc></StartTime><FrequencyChanges><FrequencyChange><Frequency dt:dt=""r8"">2923105</Frequency><Timestamp dt:dt=""r8"">1277039732913</Timestamp><Current dt:dt=""r8"">0</Current><DateUtc dt:dt=""string"">2017-07-17T15:03:29Z</DateUtc></FrequencyChange></FrequencyChanges></Clock>\n",60.004,1,1435023571,07-17-2017,10:03:30,3:03:30 PM,30,A180715_2T.wav,HE is HOLDING his NOSE.   ,2Talker,TypeSPINProc,StimList,is{SPACE}yellow{.}{.}neck{ESCAPE},10224,571263,15,1,30
SPIN,2023,1,"<?xml version=""1.0""?>\n<Clock xmlns:dt=""urn:schemas-microsoft-com:datatypes""><Description dt:dt=""string"">E-Prime Primary Realtime Clock</Description><StartTime><Timestamp dt:dt=""int"">0</Timestamp><DateUtc dt:dt=""string"">2017-07-17T15:03:29Z</DateUtc></StartTime><FrequencyChanges><FrequencyChange><Frequency dt:dt=""r8"">2923105</Frequency><Timestamp dt:dt=""r8"">1277039732913</Timestamp><Current dt:dt=""r8"">0</Current><DateUtc dt:dt=""string"">2017-07-17T15:03:29Z</DateUtc></FrequencyChange></FrequencyChanges></Clock>\n",60.004,1,1435023571,07-17-2017,10:03:30,3:03:30 PM,31,A180912_8T.wav,The LADY PACKED her BAG.   ,SSN,TypeSPINProc,StimList,the{SPACE}lady{SPACE}passed{SPACE}them{SPACE}back{ESCAPE},10780,582718,28,1,31
SPIN,2023,1,"<?xml version=""1.0""?>\n<Clock xmlns:dt=""urn:schemas-microsoft-com:datatypes""><Description dt:dt=""string"">E-Prime Primary Realtime Clock</Description><StartTime><Timestamp dt:dt=""int"">0</Timestamp><DateUtc dt:dt=""string"">2017-07-17T15:03:29Z</DateUtc></StartTime><FrequencyChanges><FrequencyChange><Frequency dt:dt=""r8"">2923105</Frequency><Timestamp dt:dt=""r8"">1277039732913</Timestamp><Current dt:dt=""r8"">0</Current><DateUtc dt:dt=""string"">2017-07-17T15:03:29Z</DateUtc></FrequencyChange></FrequencyChanges></Clock>\n",60.004,1,1435023571,07-17-2017,10:03:30,3:03:30 PM,32,A180709_2T.wav,The BUS LEFT EARLY.   ,2Talker,TypeSPINProc,StimList,monday{SPACE}is{SPACE}the{SPACE}first{SPACE}day{SPACE}of{SPACE}a{SPACE}week{ESCAPE},9352,592573,9,1,32
SPIN,2023,1,"<?xml version=""1.0""?>\n<Clock xmlns:dt=""urn:schemas-microsoft-com:datatypes""><Description dt:dt=""string"">E-Prime Primary Realtime Clock</Description><StartTime><Timestamp dt:dt=""int"">0</Timestamp><DateUtc dt:dt=""string"">2017-07-17T15:03:29Z</DateUtc></StartTime><FrequencyChanges><FrequencyChange><Frequency dt:dt=""r8"">2923105</Frequency><Timestamp dt:dt=""r8"">1277039732913</Timestamp><Current dt:dt=""r8"">0</Current><DateUtc dt:dt=""string"">2017-07-17T15:03:29Z</DateUtc></FrequencyChange></FrequencyChanges></Clock>\n",60.004,1,1435023571,07-17-2017,10:03:30,3:03:30 PM,33,A181507_1T.wav,Some NICE PEOPLE are COMING.   ,1T,TypeSPINProc,StimList,nice{SPACE}people{SPACE}are{SPACE}coming{ESCAPE},7516,600669,55,1,33
SPIN,2023,1,"<?xml version=""1.0""?>\n<Clock xmlns:dt=""urn:schemas-microsoft-com:datatypes""><Description dt:dt=""string"">E-Prime Primary Realtime Clock</Description><StartTime><Timestamp dt:dt=""int"">0</Timestamp><DateUtc dt:dt=""string"">2017-07-17T15:03:29Z</DateUtc></StartTime><FrequencyChanges><FrequencyChange><Frequency dt:dt=""r8"">2923105</Frequency><Timestamp dt:dt=""r8"">1277039732913</Timestamp><Current dt:dt=""r8"">0</Current><DateUtc dt:dt=""string"">2017-07-17T15:03:29Z</DateUtc></FrequencyChange></FrequencyChanges></Clock>\n",60.004,1,1435023571,07-17-2017,10:03:30,3:03:30 PM,34,A180703_2T.wav,The FLOOR LOOKED CLEAN. ,2Talker,TypeSPINProc,StimList,people{SPACE}want{SPACE}to{SPACE}do{SPACE}cleaning{ESCAPE},11553,612756,3,1,34
SPIN,2023,1,"<?xml version=""1.0""?>\n<Clock xmlns:dt=""urn:schemas-microsoft-com:datatypes""><Description dt:dt=""string"">E-Prime Primary Realtime Clock</Description><StartTime><Timestamp dt:dt=""int"">0</Timestamp><DateUtc dt:dt=""string"">2017-07-17T15:03:29Z</DateUtc></StartTime><FrequencyChanges><FrequencyChange><Frequency dt:dt=""r8"">2923105</Frequency><Timestamp dt:dt=""r8"">1277039732913</Timestamp><Current dt:dt=""r8"">0</Current><DateUtc dt:dt=""string"">2017-07-17T15:03:29Z</DateUtc></FrequencyChange></FrequencyChanges></Clock>\n",60.004,1,1435023571,07-17-2017,10:03:30,3:03:30 PM,35,A181013_SSN.wav,The SHIRTS are HANGING in the CLOSET.   ,SSN,TypeSPINProc,StimList,the{SPACE}shirts{SPACE}are{SPACE}in{SPACE}hospital{ESCAPE},10844,623963,45,1,35
SPIN,2023,1,"<?xml version=""1.0""?>\n<Clock xmlns:dt=""urn:schemas-microsoft-com:datatypes""><Description dt:dt=""string"">E-Prime Primary Realtime Clock</Description><StartTime><Timestamp dt:dt=""int"">0</Timestamp><DateUtc dt:dt=""string"">2017-07-17T15:03:29Z</DateUtc></StartTime><FrequencyChanges><FrequencyChange><Frequency dt:dt=""r8"">2923105</Frequency><Timestamp dt:dt=""r8"">1277039732913</Timestamp><Current dt:dt=""r8"">0</Current><DateUtc dt:dt=""string"">2017-07-17T15:03:29Z</DateUtc></FrequencyChange></FrequencyChanges></Clock>\n",60.004,1,1435023571,07-17-2017,10:03:30,3:03:30 PM,36,A180701_2T.wav,The CHILDREN DROPPED the BAG,2Talker,TypeSPINProc,StimList,the{SPACE}boy{SPACE}is{SPACE}helping{SPACE}his{SPACE}mother{SPACE}{ESCAPE},11953,636371,1,1,36
SPIN,2023,1,"<?xml version=""1.0""?>\n<Clock xmlns:dt=""urn:schemas-microsoft-com:datatypes""><Description dt:dt=""string"">E-Prime Primary Realtime Clock</Description><StartTime><Timestamp dt:dt=""int"">0</Timestamp><DateUtc dt:dt=""string"">2017-07-17T15:03:29Z</DateUtc></StartTime><FrequencyChanges><FrequencyChange><Frequency dt:dt=""r8"">2923105</Frequency><Timestamp dt:dt=""r8"">1277039732913</Timestamp><Current dt:dt=""r8"">0</Current><DateUtc dt:dt=""string"">2017-07-17T15:03:29Z</DateUtc></FrequencyChange></FrequencyChanges></Clock>\n",60.004,1,1435023571,07-17-2017,10:03:30,3:03:30 PM,37,A181002_SSN.wav,The JANITOR USED a BROOM.   ,SSN,TypeSPINProc,StimList,the{SPACE}jxx{SPACE}used{SPACE}to{SPACE}move{ESCAPE},19388,656305,34,1,37
SPIN,2023,1,"<?xml version=""1.0""?>\n<Clock xmlns:dt=""urn:schemas-microsoft-com:datatypes""><Description dt:dt=""string"">E-Prime Primary Realtime Clock</Description><StartTime><Timestamp dt:dt=""int"">0</Timestamp><DateUtc dt:dt=""string"">2017-07-17T15:03:29Z</DateUtc></StartTime><FrequencyChanges><FrequencyChange><Frequency dt:dt=""r8"">2923105</Frequency><Timestamp dt:dt=""r8"">1277039732913</Timestamp><Current dt:dt=""r8"">0</Current><DateUtc dt:dt=""string"">2017-07-17T15:03:29Z</DateUtc></FrequencyChange></FrequencyChanges></Clock>\n",60.004,1,1435023571,07-17-2017,10:03:30,3:03:30 PM,38,A181503_1T.wav,HE is SUCKING his THUMB.   ,1T,TypeSPINProc,StimList,oh{SPACE}on{SPACE}my{SPACE}head{ESCAPE},10843,667809,51,1,38
SPIN,2023,1,"<?xml version=""1.0""?>\n<Clock xmlns:dt=""urn:schemas-microsoft-com:datatypes""><Description dt:dt=""string"">E-Prime Primary Realtime Clock</Description><StartTime><Timestamp dt:dt=""int"">0</Timestamp><DateUtc dt:dt=""string"">2017-07-17T15:03:29Z</DateUtc></StartTime><FrequencyChanges><FrequencyChange><Frequency dt:dt=""r8"">2923105</Frequency><Timestamp dt:dt=""r8"">1277039732913</Timestamp><Current dt:dt=""r8"">0</Current><DateUtc dt:dt=""string"">2017-07-17T15:03:29Z</DateUtc></FrequencyChange></FrequencyChanges></Clock>\n",60.004,1,1435023571,07-17-2017,10:03:30,3:03:30 PM,39,A180710_2T.wav,THEY had TWO EMPTY BOTTLES.   ,2Talker,TypeSPINProc,StimList,xxx{ESCAPE},7609,676024,10,1,39
SPIN,2023,1,"<?xml version=""1.0""?>\n<Clock xmlns:dt=""urn:schemas-microsoft-com:datatypes""><Description dt:dt=""string"">E-Prime Primary Realtime Clock</Description><StartTime><Timestamp dt:dt=""int"">0</Timestamp><DateUtc dt:dt=""string"">2017-07-17T15:03:29Z</DateUtc></StartTime><FrequencyChanges><FrequencyChange><Frequency dt:dt=""r8"">2923105</Frequency><Timestamp dt:dt=""r8"">1277039732913</Timestamp><Current dt:dt=""r8"">0</Current><DateUtc dt:dt=""string"">2017-07-17T15:03:29Z</DateUtc></FrequencyChange></FrequencyChanges></Clock>\n",60.004,1,1435023571,07-17-2017,10:03:30,3:03:30 PM,40,A181003_SSN.wav,THEY SAT on a WOODEN BENCH.   ,SSN,TypeSPINProc,StimList,accept{SHIFT}{SPACE}xxx{.}{.}{.}{ESCAPE},13290,690071,35,1,40
SPIN,2023,1,"<?xml version=""1.0""?>\n<Clock xmlns:dt=""urn:schemas-microsoft-com:datatypes""><Description dt:dt=""string"">E-Prime Primary Realtime Clock</Description><StartTime><Timestamp dt:dt=""int"">0</Timestamp><DateUtc dt:dt=""string"">2017-07-17T15:03:29Z</DateUtc></StartTime><FrequencyChanges><FrequencyChange><Frequency dt:dt=""r8"">2923105</Frequency><Timestamp dt:dt=""r8"">1277039732913</Timestamp><Current dt:dt=""r8"">0</Current><DateUtc dt:dt=""string"">2017-07-17T15:03:29Z</DateUtc></FrequencyChange></FrequencyChanges></Clock>\n",60.004,1,1435023571,07-17-2017,10:03:30,3:03:30 PM,41,A181009_SSN.wav,The MAILMAN BROUGHT a LETTER.   ,SSN,TypeSPINProc,StimList,tha{SPACE}mail{SPACE}came{SPACE}at{SPACE}11{ESCAPE},8564,699295,41,1,41
SPIN,2023,1,"<?xml version=""1.0""?>\n<Clock xmlns:dt=""urn:schemas-microsoft-com:datatypes""><Description dt:dt=""string"">E-Prime Primary Realtime Clock</Description><StartTime><Timestamp dt:dt=""int"">0</Timestamp><DateUtc dt:dt=""string"">2017-07-17T15:03:29Z</DateUtc></StartTime><FrequencyChanges><FrequencyChange><Frequency dt:dt=""r8"">2923105</Frequency><Timestamp dt:dt=""r8"">1277039732913</Timestamp><Current dt:dt=""r8"">0</Current><DateUtc dt:dt=""string"">2017-07-17T15:03:29Z</DateUtc></FrequencyChange></FrequencyChanges></Clock>\n",60.004,1,1435023571,07-17-2017,10:03:30,3:03:30 PM,42,A181512_1T.wav,The DAUGHTER SET the TABLE.   ,1T,TypeSPINProc,StimList,he{SPACE}had{SPACE}apple{SPACE}pie{ESCAPE},6418,706198,60,1,42
SPIN,2023,1,"<?xml version=""1.0""?>\n<Clock xmlns:dt=""urn:schemas-microsoft-com:datatypes""><Description dt:dt=""string"">E-Prime Primary Realtime Clock</Description><StartTime><Timestamp dt:dt=""int"">0</Timestamp><DateUtc dt:dt=""string"">2017-07-17T15:03:29Z</DateUtc></StartTime><FrequencyChanges><FrequencyChange><Frequency dt:dt=""r8"">2923105</Frequency><Timestamp dt:dt=""r8"">1277039732913</Timestamp><Current dt:dt=""r8"">0</Current><DateUtc dt:dt=""string"">2017-07-17T15:03:29Z</DateUtc></FrequencyChange></FrequencyChanges></Clock>\n",60.004,1,1435023571,07-17-2017,10:03:30,3:03:30 PM,43,A180909_8T.wav,The DISHCLOTH is VERY WET.  ,8Talker,TypeSPINProc,StimList,one{SPACE}day{.}{.}{SPACE}wash{.}{.}{.}{ESCAPE},7601,714214,25,1,43
SPIN,2023,1,"<?xml version=""1.0""?>\n<Clock xmlns:dt=""urn:schemas-microsoft-com:datatypes""><Description dt:dt=""string"">E-Prime Primary Realtime Clock</Description><StartTime><Timestamp dt:dt=""int"">0</Timestamp><DateUtc dt:dt=""string"">2017-07-17T15:03:29Z</DateUtc></StartTime><FrequencyChanges><FrequencyChange><Frequency dt:dt=""r8"">2923105</Frequency><Timestamp dt:dt=""r8"">1277039732913</Timestamp><Current dt:dt=""r8"">0</Current><DateUtc dt:dt=""string"">2017-07-17T15:03:29Z</DateUtc></FrequencyChange></FrequencyChanges></Clock>\n",60.004,1,1435023571,07-17-2017,10:03:30,3:03:30 PM,44,A180913_8T.wav,The DINNER PLATE is HOT.   ,SSN,TypeSPINProc,StimList,he{SPACE}did{SPACE}not{SPACE}play{SPACE}xxx{ESCAPE},18706,733268,29,1,44
SPIN,2023,1,"<?xml version=""1.0""?>\n<Clock xmlns:dt=""urn:schemas-microsoft-com:datatypes""><Description dt:dt=""string"">E-Prime Primary Realtime Clock</Description><StartTime><Timestamp dt:dt=""int"">0</Timestamp><DateUtc dt:dt=""string"">2017-07-17T15:03:29Z</DateUtc></StartTime><FrequencyChanges><FrequencyChange><Frequency dt:dt=""r8"">2923105</Frequency><Timestamp dt:dt=""r8"">1277039732913</Timestamp><Current dt:dt=""r8"">0</Current><DateUtc dt:dt=""string"">2017-07-17T15:03:29Z</DateUtc></FrequencyChange></FrequencyChanges></Clock>\n",60.004,1,1435023571,07-17-2017,10:03:30,3:03:30 PM,45,A181001_SSN.wav,A DISH TOWEL is by the SINK.   ,SSN,TypeSPINProc,StimList,the{SPACE}dish{SPACE}toll{SPACE}is{SPACE}by{SPACE}the{SPACE}sink{ESCAPE},9332,743260,33,1,45
SPIN,2023,1,"<?xml version=""1.0""?>\n<Clock xmlns:dt=""urn:schemas-microsoft-com:datatypes""><Description dt:dt=""string"">E-Prime Primary Realtime Clock</Description><StartTime><Timestamp dt:dt=""int"">0</Timestamp><DateUtc dt:dt=""string"">2017-07-17T15:03:29Z</DateUtc></StartTime><FrequencyChanges><FrequencyChange><Frequency dt:dt=""r8"">2923105</Frequency><Timestamp dt:dt=""r8"">1277039732913</Timestamp><Current dt:dt=""r8"">0</Current><DateUtc dt:dt=""string"">2017-07-17T15:03:29Z</DateUtc></FrequencyChange></FrequencyChanges></Clock>\n",60.004,1,1435023571,07-17-2017,10:03:30,3:03:30 PM,46,A181515_1T.wav,The TRAIN STOPS at the STATION.   ,1T,TypeSPINProc,StimList,for{SPACE}train{SPACE}station{.}{.}{.}{SPACE}apple{SPACE}pie{ESCAPE},14020,757947,63,1,46
SPIN,2023,1,"<?xml version=""1.0""?>\n<Clock xmlns:dt=""urn:schemas-microsoft-com:datatypes""><Description dt:dt=""string"">E-Prime Primary Realtime Clock</Description><StartTime><Timestamp dt:dt=""int"">0</Timestamp><DateUtc dt:dt=""string"">2017-07-17T15:03:29Z</DateUtc></StartTime><FrequencyChanges><FrequencyChange><Frequency dt:dt=""r8"">2923105</Frequency><Timestamp dt:dt=""r8"">1277039732913</Timestamp><Current dt:dt=""r8"">0</Current><DateUtc dt:dt=""string"">2017-07-17T15:03:29Z</DateUtc></FrequencyChange></FrequencyChanges></Clock>\n",60.004,1,1435023571,07-17-2017,10:03:30,3:03:30 PM,47,A180907_8T.wav,The FIVE MEN are WORKING.    ,8Talker,TypeSPINProc,StimList,five{SPACE}shirts{.}{.}{SPACE}personal{ESCAPE},9184,767594,23,1,47
SPIN,2023,1,"<?xml version=""1.0""?>\n<Clock xmlns:dt=""urn:schemas-microsoft-com:datatypes""><Description dt:dt=""string"">E-Prime Primary Realtime Clock</Description><StartTime><Timestamp dt:dt=""int"">0</Timestamp><DateUtc dt:dt=""string"">2017-07-17T15:03:29Z</DateUtc></StartTime><FrequencyChanges><FrequencyChange><Frequency dt:dt=""r8"">2923105</Frequency><Timestamp dt:dt=""r8"">1277039732913</Timestamp><Current dt:dt=""r8"">0</Current><DateUtc dt:dt=""string"">2017-07-17T15:03:29Z</DateUtc></FrequencyChange></FrequencyChanges></Clock>\n",60.004,1,1435023571,07-17-2017,10:03:30,3:03:30 PM,48,A181516_1T.wav,The PUPPY PLAYS with a BALL.   ,1T,TypeSPINProc,StimList,the{SPACE}wolf{SPACE}dropped{SPACE}the{SPACE}ball{LEFTARROW}{LEFTARROW}{ESCAPE},15676,783585,64,1,48
SPIN,2023,1,"<?xml version=""1.0""?>\n<Clock xmlns:dt=""urn:schemas-microsoft-com:datatypes""><Description dt:dt=""string"">E-Prime Primary Realtime Clock</Description><StartTime><Timestamp dt:dt=""int"">0</Timestamp><DateUtc dt:dt=""string"">2017-07-17T15:03:29Z</DateUtc></StartTime><FrequencyChanges><FrequencyChange><Frequency dt:dt=""r8"">2923105</Frequency><Timestamp dt:dt=""r8"">1277039732913</Timestamp><Current dt:dt=""r8"">0</Current><DateUtc dt:dt=""string"">2017-07-17T15:03:29Z</DateUtc></FrequencyChange></FrequencyChanges></Clock>\n",60.004,1,1435023571,07-17-2017,10:03:30,3:03:30 PM,49,A180711_2T.wav,The BALL is BOUNCING very HIGH.   ,2Talker,TypeSPINProc,StimList,xxx{ESCAPE},6694,790969,11,1,49
SPIN,2023,1,"<?xml version=""1.0""?>\n<Clock xmlns:dt=""urn:schemas-microsoft-com:datatypes""><Description dt:dt=""string"">E-Prime Primary Realtime Clock</Description><StartTime><Timestamp dt:dt=""int"">0</Timestamp><DateUtc dt:dt=""string"">2017-07-17T15:03:29Z</DateUtc></StartTime><FrequencyChanges><FrequencyChange><Frequency dt:dt=""r8"">2923105</Frequency><Timestamp dt:dt=""r8"">1277039732913</Timestamp><Current dt:dt=""r8"">0</Current><DateUtc dt:dt=""string"">2017-07-17T15:03:29Z</DateUtc></FrequencyChange></FrequencyChanges></Clock>\n",60.004,1,1435023571,07-17-2017,10:03:30,3:03:30 PM,50,A181513_1T.wav,THEY WALKED ACROSS the GRASS.   ,1T,TypeSPINProc,StimList,1{SPACE}quarter{SPACE}is{SPACE}25{SPACE}cents{ESCAPE},8814,800272,61,1,50
SPIN,2023,1,"<?xml version=""1.0""?>\n<Clock xmlns:dt=""urn:schemas-microsoft-com:datatypes""><Description dt:dt=""string"">E-Prime Primary Realtime Clock</Description><StartTime><Timestamp dt:dt=""int"">0</Timestamp><DateUtc dt:dt=""string"">2017-07-17T15:03:29Z</DateUtc></StartTime><FrequencyChanges><FrequencyChange><Frequency dt:dt=""r8"">2923105</Frequency><Timestamp dt:dt=""r8"">1277039732913</Timestamp><Current dt:dt=""r8"">0</Current><DateUtc dt:dt=""string"">2017-07-17T15:03:29Z</DateUtc></FrequencyChange></FrequencyChanges></Clock>\n",60.004,1,1435023571,07-17-2017,10:03:30,3:03:30 PM,51,A180712_2T.wav,FATHER FORGOT the BREAD.   ,2Talker,TypeSPINProc,StimList,did{SPACE}she{SPACE}change{SPACE}wet{SPACE}coat{ESCAPE},15220,816127,12,1,51
SPIN,2023,1,"<?xml version=""1.0""?>\n<Clock xmlns:dt=""urn:schemas-microsoft-com:datatypes""><Description dt:dt=""string"">E-Prime Primary Realtime Clock</Description><StartTime><Timestamp dt:dt=""int"">0</Timestamp><DateUtc dt:dt=""string"">2017-07-17T15:03:29Z</DateUtc></StartTime><FrequencyChanges><FrequencyChange><Frequency dt:dt=""r8"">2923105</Frequency><Timestamp dt:dt=""r8"">1277039732913</Timestamp><Current dt:dt=""r8"">0</Current><DateUtc dt:dt=""string"">2017-07-17T15:03:29Z</DateUtc></FrequencyChange></FrequencyChanges></Clock>\n",60.004,1,1435023571,07-17-2017,10:03:30,3:03:30 PM,52,A181011_SSN.wav,HE BROKE his LEG.   ,SSN,TypeSPINProc,StimList,xxx{SPACE}left{ESCAPE},7639,824295,43,1,52
SPIN,2023,1,"<?xml version=""1.0""?>\n<Clock xmlns:dt=""urn:schemas-microsoft-com:datatypes""><Description dt:dt=""string"">E-Prime Primary Realtime Clock</Description><StartTime><Timestamp dt:dt=""int"">0</Timestamp><DateUtc dt:dt=""string"">2017-07-17T15:03:29Z</DateUtc></StartTime><FrequencyChanges><FrequencyChange><Frequency dt:dt=""r8"">2923105</Frequency><Timestamp dt:dt=""r8"">1277039732913</Timestamp><Current dt:dt=""r8"">0</Current><DateUtc dt:dt=""string"">2017-07-17T15:03:29Z</DateUtc></FrequencyChange></FrequencyChanges></Clock>\n",60.004,1,1435023571,07-17-2017,10:03:30,3:03:30 PM,53,A181016_SSN.wav,The CHICKEN LAID some EGGS.   ,SSN,TypeSPINProc,StimList,the{SPACE}chick{SPACE}lives{SPACE}next{ESCAPE},12057,836862,48,1,53
SPIN,2023,1,"<?xml version=""1.0""?>\n<Clock xmlns:dt=""urn:schemas-microsoft-com:datatypes""><Description dt:dt=""string"">E-Prime Primary Realtime Clock</Description><StartTime><Timestamp dt:dt=""int"">0</Timestamp><DateUtc dt:dt=""string"">2017-07-17T15:03:29Z</DateUtc></StartTime><FrequencyChanges><FrequencyChange><Frequency dt:dt=""r8"">2923105</Frequency><Timestamp dt:dt=""r8"">1277039732913</Timestamp><Current dt:dt=""r8"">0</Current><DateUtc dt:dt=""string"">2017-07-17T15:03:29Z</DateUtc></FrequencyChange></FrequencyChanges></Clock>\n",60.004,1,1435023571,07-17-2017,10:03:30,3:03:30 PM,54,A180915_8T.wav,The CHILD DRANK some MILK.   ,SSN,TypeSPINProc,StimList,the{SPACE}child{SPACE}drinks{SPACE}milk{ESCAPE},8270,845525,31,1,54
SPIN,2023,1,"<?xml version=""1.0""?>\n<Clock xmlns:dt=""urn:schemas-microsoft-com:datatypes""><Description dt:dt=""string"">E-Prime Primary Realtime Clock</Description><StartTime><Timestamp dt:dt=""int"">0</Timestamp><DateUtc dt:dt=""string"">2017-07-17T15:03:29Z</DateUtc></StartTime><FrequencyChanges><FrequencyChange><Frequency dt:dt=""r8"">2923105</Frequency><Timestamp dt:dt=""r8"">1277039732913</Timestamp><Current dt:dt=""r8"">0</Current><DateUtc dt:dt=""string"">2017-07-17T15:03:29Z</DateUtc></FrequencyChange></FrequencyChanges></Clock>\n",60.004,1,1435023571,07-17-2017,10:03:30,3:03:30 PM,55,A181008_SSN.wav,SOMEONE is CROSSING the ROAD.   ,SSN,TypeSPINProc,StimList,someone{SPACE}is{SPACE}crossing{SPACE}the{SPACE}road{ESCAPE},7341,853445,40,1,55
SPIN,2023,1,"<?xml version=""1.0""?>\n<Clock xmlns:dt=""urn:schemas-microsoft-com:datatypes""><Description dt:dt=""string"">E-Prime Primary Realtime Clock</Description><StartTime><Timestamp dt:dt=""int"">0</Timestamp><DateUtc dt:dt=""string"">2017-07-17T15:03:29Z</DateUtc></StartTime><FrequencyChanges><FrequencyChange><Frequency dt:dt=""r8"">2923105</Frequency><Timestamp dt:dt=""r8"">1277039732913</Timestamp><Current dt:dt=""r8"">0</Current><DateUtc dt:dt=""string"">2017-07-17T15:03:29Z</DateUtc></FrequencyChange></FrequencyChanges></Clock>\n",60.004,1,1435023571,07-17-2017,10:03:30,3:03:30 PM,56,A181509_1T.wav,THEY MET SOME FRIENDS.   ,1T,TypeSPINProc,StimList,she{SPACE}met{SPACE}some{SPACE}friends{ESCAPE},6388,860292,57,1,56
SPIN,2023,1,"<?xml version=""1.0""?>\n<Clock xmlns:dt=""urn:schemas-microsoft-com:datatypes""><Description dt:dt=""string"">E-Prime Primary Realtime Clock</Description><StartTime><Timestamp dt:dt=""int"">0</Timestamp><DateUtc dt:dt=""string"">2017-07-17T15:03:29Z</DateUtc></StartTime><FrequencyChanges><FrequencyChange><Frequency dt:dt=""r8"">2923105</Frequency><Timestamp dt:dt=""r8"">1277039732913</Timestamp><Current dt:dt=""r8"">0</Current><DateUtc dt:dt=""string"">2017-07-17T15:03:29Z</DateUtc></FrequencyChange></FrequencyChanges></Clock>\n",60.004,1,1435023571,07-17-2017,10:03:30,3:03:30 PM,57,A180714_2T.wav,The ORANGE was VERY SWEET.   ,2Talker,TypeSPINProc,StimList,she{SPACE}had{SPACE}a{SPACE}cup{SPACE}of{SPACE}coffee{ESCAPE},10135,870788,14,1,57
SPIN,2023,1,"<?xml version=""1.0""?>\n<Clock xmlns:dt=""urn:schemas-microsoft-com:datatypes""><Description dt:dt=""string"">E-Prime Primary Realtime Clock</Description><StartTime><Timestamp dt:dt=""int"">0</Timestamp><DateUtc dt:dt=""string"">2017-07-17T15:03:29Z</DateUtc></StartTime><FrequencyChanges><FrequencyChange><Frequency dt:dt=""r8"">2923105</Frequency><Timestamp dt:dt=""r8"">1277039732913</Timestamp><Current dt:dt=""r8"">0</Current><DateUtc dt:dt=""string"">2017-07-17T15:03:29Z</DateUtc></FrequencyChange></FrequencyChanges></Clock>\n",60.004,1,1435023571,07-17-2017,10:03:30,3:03:30 PM,58,A180906_8T.wav,A LETTER FELL on the FLOOR.   ,SSN,TypeSPINProc,StimList,xxx{ESCAPE},4109,875412,22,1,58
SPIN,2023,1,"<?xml version=""1.0""?>\n<Clock xmlns:dt=""urn:schemas-microsoft-com:datatypes""><Description dt:dt=""string"">E-Prime Primary Realtime Clock</Description><StartTime><Timestamp dt:dt=""int"">0</Timestamp><DateUtc dt:dt=""string"">2017-07-17T15:03:29Z</DateUtc></StartTime><FrequencyChanges><FrequencyChange><Frequency dt:dt=""r8"">2923105</Frequency><Timestamp dt:dt=""r8"">1277039732913</Timestamp><Current dt:dt=""r8"">0</Current><DateUtc dt:dt=""string"">2017-07-17T15:03:29Z</DateUtc></FrequencyChange></FrequencyChanges></Clock>\n",60.004,1,1435023571,07-17-2017,10:03:30,3:03:30 PM,59,A180901_8T.wav,The BOOK TELLS a STORY.   ,8Talker,TypeSPINProc,StimList,told{SPACE}store{.}{.}{.}{ESCAPE},8010,883779,17,1,59
SPIN,2023,1,"<?xml version=""1.0""?>\n<Clock xmlns:dt=""urn:schemas-microsoft-com:datatypes""><Description dt:dt=""string"">E-Prime Primary Realtime Clock</Description><StartTime><Timestamp dt:dt=""int"">0</Timestamp><DateUtc dt:dt=""string"">2017-07-17T15:03:29Z</DateUtc></StartTime><FrequencyChanges><FrequencyChange><Frequency dt:dt=""r8"">2923105</Frequency><Timestamp dt:dt=""r8"">1277039732913</Timestamp><Current dt:dt=""r8"">0</Current><DateUtc dt:dt=""string"">2017-07-17T15:03:29Z</DateUtc></FrequencyChange></FrequencyChanges></Clock>\n",60.004,1,1435023571,07-17-2017,10:03:30,3:03:30 PM,60,A180905_8T.wav,The TABLE has THREE LEGS.   ,SSN,TypeSPINProc,StimList,the{SPACE}table{SPACE}is{SPACE}good{SPACE}for{SPACE}relax{ESCAPE},11932,896634,21,1,60
SPIN,2023,1,"<?xml version=""1.0""?>\n<Clock xmlns:dt=""urn:schemas-microsoft-com:datatypes""><Description dt:dt=""string"">E-Prime Primary Realtime Clock</Description><StartTime><Timestamp dt:dt=""int"">0</Timestamp><DateUtc dt:dt=""string"">2017-07-17T15:03:29Z</DateUtc></StartTime><FrequencyChanges><FrequencyChange><Frequency dt:dt=""r8"">2923105</Frequency><Timestamp dt:dt=""r8"">1277039732913</Timestamp><Current dt:dt=""r8"">0</Current><DateUtc dt:dt=""string"">2017-07-17T15:03:29Z</DateUtc></FrequencyChange></FrequencyChanges></Clock>\n",60.004,1,1435023571,07-17-2017,10:03:30,3:03:30 PM,61,A180910_8T.wav,THEY WENT on a VACATION.   ,SSN,TypeSPINProc,StimList,they{SPACE}went{SPACE}to{SPACE}a{SPACE}mususeum{ESCAPE},19643,916777,26,1,61
SPIN,2023,1,"<?xml version=""1.0""?>\n<Clock xmlns:dt=""urn:schemas-microsoft-com:datatypes""><Description dt:dt=""string"">E-Prime Primary Realtime Clock</Description><StartTime><Timestamp dt:dt=""int"">0</Timestamp><DateUtc dt:dt=""string"">2017-07-17T15:03:29Z</DateUtc></StartTime><FrequencyChanges><FrequencyChange><Frequency dt:dt=""r8"">2923105</Frequency><Timestamp dt:dt=""r8"">1277039732913</Timestamp><Current dt:dt=""r8"">0</Current><DateUtc dt:dt=""string"">2017-07-17T15:03:29Z</DateUtc></FrequencyChange></FrequencyChanges></Clock>\n",60.004,1,1435023571,07-17-2017,10:03:30,3:03:30 PM,62,A181007_SSN.wav,The DOG JUMPED ON the CHAIR.   ,SSN,TypeSPINProc,StimList,the{SPACE}door{SPACE}changed{ESCAPE},10746,927912,39,1,62
SPIN,2023,1,"<?xml version=""1.0""?>\n<Clock xmlns:dt=""urn:schemas-microsoft-com:datatypes""><Description dt:dt=""string"">E-Prime Primary Realtime Clock</Description><StartTime><Timestamp dt:dt=""int"">0</Timestamp><DateUtc dt:dt=""string"">2017-07-17T15:03:29Z</DateUtc></StartTime><FrequencyChanges><FrequencyChange><Frequency dt:dt=""r8"">2923105</Frequency><Timestamp dt:dt=""r8"">1277039732913</Timestamp><Current dt:dt=""r8"">0</Current><DateUtc dt:dt=""string"">2017-07-17T15:03:29Z</DateUtc></FrequencyChange></FrequencyChanges></Clock>\n",60.004,1,1435023571,07-17-2017,10:03:30,3:03:30 PM,63,A180713_2T.wav,The GIRL has a PICTURE BOOK.   ,2Talker,TypeSPINProc,StimList,the{SPACE}girl{SPACE}has{SPACE}a{SPACE}picture{ESCAPE},9328,937744,13,1,63
SPIN,2023,1,"<?xml version=""1.0""?>\n<Clock xmlns:dt=""urn:schemas-microsoft-com:datatypes""><Description dt:dt=""string"">E-Prime Primary Realtime Clock</Description><StartTime><Timestamp dt:dt=""int"">0</Timestamp><DateUtc dt:dt=""string"">2017-07-17T15:03:29Z</DateUtc></StartTime><FrequencyChanges><FrequencyChange><Frequency dt:dt=""r8"">2923105</Frequency><Timestamp dt:dt=""r8"">1277039732913</Timestamp><Current dt:dt=""r8"">0</Current><DateUtc dt:dt=""string"">2017-07-17T15:03:29Z</DateUtc></FrequencyChange></FrequencyChanges></Clock>\n",60.004,1,1435023571,07-17-2017,10:03:30,3:03:30 PM,64,A181505_1T.wav,The DRIVER STARTED the ENGINE.   ,1T,TypeSPINProc,StimList,people{.}{.}{.}{SPACE}shirts{.}{.}{.}{SPACE}quarter{ESCAPE},15399,953647,53,1,64