ExperimentName,Subject,Session,Clock.Information,Display.RefreshRate,Group,RandomSeed,SessionDate,SessionTime,SessionTimeUtc,Block,Filename,FileText,Noise,Procedure,Running,Slide1.RESP,Slide1.RT,Slide1.RTTime,StimList,StimList.Cycle,StimList.Sample
SPIN,2019,1,"<?xml version=""1.0""?>\n<Clock xmlns:dt=""urn:schemas-microsoft-com:datatypes""><Description dt:dt=""string"">E-Prime Primary Realtime Clock</Description><StartTime><Timestamp dt:dt=""int"">0</Timestamp><DateUtc dt:dt=""string"">2017-07-07T14:37:48Z</DateUtc></StartTime><FrequencyChanges><FrequencyChange><Frequency dt:dt=""r8"">2923105</Frequency><Timestamp dt:dt=""r8"">233657784999</Timestamp><Current dt:dt=""r8"">0</Current><DateUtc dt:dt=""string"">2017-07-07T14:37:48Z</DateUtc></FrequencyChange></FrequencyChanges></Clock>\n",60.004,1,1729741072,07-07-2017,09:37:48,2:37:48 PM,1,A180909_8T.wav,The DISHCLOTH is VERY WET.  ,8Talker,TypeSPINProc,StimList,{SHIFT}This{SPACE}locker{.}{.}{.}one{SPACE}of{SPACE}the{ESCAPE},29751,121715,25,1,1
SPIN,2019,1,"<?xml version=""1.0""?>\n<Clock xmlns:dt=""urn:schemas-microsoft-com:datatypes""><Description dt:dt=""string"">E-Prime Primary Realtime Clock</Description><StartTime><Timestamp dt:dt=""int"">0</Timestamp><DateUtc dt:dt=""string"">2017-07-07T14:37:48Z</DateUtc></StartTime><FrequencyChanges><FrequencyChange><Frequency dt:dt=""r8"">2923105</Frequency><Timestamp dt:dt=""r8"">233657784999</Timestamp><Current dt:dt=""r8"">0</Current><DateUtc dt:dt=""string"">2017-07-07T14:37:48Z</DateUtc></FrequencyChange></FrequencyChanges></Clock>\n",60.004,1,1729741072,07-07-2017,09:37:48,2:37:48 PM,2,A181003_SSN.wav,THEY SAT on a WOODEN BENCH.   ,SSN,TypeSPINProc,StimList,{SHIFT}It{SPACE}said{SPACE}a{SPACE}{.}{.}{.}act{ESCAPE},51023,175951,35,1,2
SPIN,2019,1,"<?xml version=""1.0""?>\n<Clock xmlns:dt=""urn:schemas-microsoft-com:datatypes""><Description dt:dt=""string"">E-Prime Primary Realtime Clock</Description><StartTime><Timestamp dt:dt=""int"">0</Timestamp><DateUtc dt:dt=""string"">2017-07-07T14:37:48Z</DateUtc></StartTime><FrequencyChanges><FrequencyChange><Frequency dt:dt=""r8"">2923105</Frequency><Timestamp dt:dt=""r8"">233657784999</Timestamp><Current dt:dt=""r8"">0</Current><DateUtc dt:dt=""string"">2017-07-07T14:37:48Z</DateUtc></FrequencyChange></FrequencyChanges></Clock>\n",60.004,1,1729741072,07-07-2017,09:37:48,2:37:48 PM,3,A180702_2T.wav,The DOG CAME BACK.   ,2Talker,TypeSPINProc,StimList,{SHIFT}the{SPACE}world{SPACE}drop{ESCAPE},25346,203438,2,1,3
SPIN,2019,1,"<?xml version=""1.0""?>\n<Clock xmlns:dt=""urn:schemas-microsoft-com:datatypes""><Description dt:dt=""string"">E-Prime Primary Realtime Clock</Description><StartTime><Timestamp dt:dt=""int"">0</Timestamp><DateUtc dt:dt=""string"">2017-07-07T14:37:48Z</DateUtc></StartTime><FrequencyChanges><FrequencyChange><Frequency dt:dt=""r8"">2923105</Frequency><Timestamp dt:dt=""r8"">233657784999</Timestamp><Current dt:dt=""r8"">0</Current><DateUtc dt:dt=""string"">2017-07-07T14:37:48Z</DateUtc></FrequencyChange></FrequencyChanges></Clock>\n",60.004,1,1729741072,07-07-2017,09:37:48,2:37:48 PM,4,A181516_1T.wav,The PUPPY PLAYS with a BALL.   ,1T,TypeSPINProc,StimList,"{SHIFT}The{SPACE}wolf{SPACE}drop{SPACE}the{SPACE}ball{,}the{SPACE}colour{ESCAPE}",28792,234132,64,1,4
SPIN,2019,1,"<?xml version=""1.0""?>\n<Clock xmlns:dt=""urn:schemas-microsoft-com:datatypes""><Description dt:dt=""string"">E-Prime Primary Realtime Clock</Description><StartTime><Timestamp dt:dt=""int"">0</Timestamp><DateUtc dt:dt=""string"">2017-07-07T14:37:48Z</DateUtc></StartTime><FrequencyChanges><FrequencyChange><Frequency dt:dt=""r8"">2923105</Frequency><Timestamp dt:dt=""r8"">233657784999</Timestamp><Current dt:dt=""r8"">0</Current><DateUtc dt:dt=""string"">2017-07-07T14:37:48Z</DateUtc></FrequencyChange></FrequencyChanges></Clock>\n",60.004,1,1729741072,07-07-2017,09:37:48,2:37:48 PM,5,A181015_SSN.wav,The BUCKETS HOLD WATER.   ,SSN,TypeSPINProc,StimList,{SHIFT}The{SPACE}bucket{SPACE}hold{SPACE}off{ESCAPE},28259,263714,47,1,5
SPIN,2019,1,"<?xml version=""1.0""?>\n<Clock xmlns:dt=""urn:schemas-microsoft-com:datatypes""><Description dt:dt=""string"">E-Prime Primary Realtime Clock</Description><StartTime><Timestamp dt:dt=""int"">0</Timestamp><DateUtc dt:dt=""string"">2017-07-07T14:37:48Z</DateUtc></StartTime><FrequencyChanges><FrequencyChange><Frequency dt:dt=""r8"">2923105</Frequency><Timestamp dt:dt=""r8"">233657784999</Timestamp><Current dt:dt=""r8"">0</Current><DateUtc dt:dt=""string"">2017-07-07T14:37:48Z</DateUtc></FrequencyChange></FrequencyChanges></Clock>\n",60.004,1,1729741072,07-07-2017,09:37:48,2:37:48 PM,6,A181511_1T.wav,The TINY BABY was PRETTY.   ,1T,TypeSPINProc,StimList,{.}{.}{.}watched{.}{SHIFT}Elephant{LEFTARROW}{ESCAPE},28157,293576,59,1,6
SPIN,2019,1,"<?xml version=""1.0""?>\n<Clock xmlns:dt=""urn:schemas-microsoft-com:datatypes""><Description dt:dt=""string"">E-Prime Primary Realtime Clock</Description><StartTime><Timestamp dt:dt=""int"">0</Timestamp><DateUtc dt:dt=""string"">2017-07-07T14:37:48Z</DateUtc></StartTime><FrequencyChanges><FrequencyChange><Frequency dt:dt=""r8"">2923105</Frequency><Timestamp dt:dt=""r8"">233657784999</Timestamp><Current dt:dt=""r8"">0</Current><DateUtc dt:dt=""string"">2017-07-07T14:37:48Z</DateUtc></FrequencyChange></FrequencyChanges></Clock>\n",60.004,1,1729741072,07-07-2017,09:37:48,2:37:48 PM,7,A180906_8T.wav,A LETTER FELL on the FLOOR.   ,SSN,TypeSPINProc,StimList,the{ESCAPE},15158,310959,22,1,7
SPIN,2019,1,"<?xml version=""1.0""?>\n<Clock xmlns:dt=""urn:schemas-microsoft-com:datatypes""><Description dt:dt=""string"">E-Prime Primary Realtime Clock</Description><StartTime><Timestamp dt:dt=""int"">0</Timestamp><DateUtc dt:dt=""string"">2017-07-07T14:37:48Z</DateUtc></StartTime><FrequencyChanges><FrequencyChange><Frequency dt:dt=""r8"">2923105</Frequency><Timestamp dt:dt=""r8"">233657784999</Timestamp><Current dt:dt=""r8"">0</Current><DateUtc dt:dt=""string"">2017-07-07T14:37:48Z</DateUtc></FrequencyChange></FrequencyChanges></Clock>\n",60.004,1,1729741072,07-07-2017,09:37:48,2:37:48 PM,8,A180714_2T.wav,The ORANGE was VERY SWEET.   ,2Talker,TypeSPINProc,StimList,a{SPACE}cup{SPACE}of{SPACE}coffee{ESCAPE},9555,321822,14,1,8
SPIN,2019,1,"<?xml version=""1.0""?>\n<Clock xmlns:dt=""urn:schemas-microsoft-com:datatypes""><Description dt:dt=""string"">E-Prime Primary Realtime Clock</Description><StartTime><Timestamp dt:dt=""int"">0</Timestamp><DateUtc dt:dt=""string"">2017-07-07T14:37:48Z</DateUtc></StartTime><FrequencyChanges><FrequencyChange><Frequency dt:dt=""r8"">2923105</Frequency><Timestamp dt:dt=""r8"">233657784999</Timestamp><Current dt:dt=""r8"">0</Current><DateUtc dt:dt=""string"">2017-07-07T14:37:48Z</DateUtc></FrequencyChange></FrequencyChanges></Clock>\n",60.004,1,1729741072,07-07-2017,09:37:48,2:37:48 PM,9,A180707_2T.wav,THEY WASHED in COLD WATER.   ,2Talker,TypeSPINProc,StimList,{LEFTARROW}{SHIFT}Feb{LEFTARROW}ruary{SPACE}has{SPACE}28{SPACE}days{.}{ESCAPE},58800,382499,7,1,9
SPIN,2019,1,"<?xml version=""1.0""?>\n<Clock xmlns:dt=""urn:schemas-microsoft-com:datatypes""><Description dt:dt=""string"">E-Prime Primary Realtime Clock</Description><StartTime><Timestamp dt:dt=""int"">0</Timestamp><DateUtc dt:dt=""string"">2017-07-07T14:37:48Z</DateUtc></StartTime><FrequencyChanges><FrequencyChange><Frequency dt:dt=""r8"">2923105</Frequency><Timestamp dt:dt=""r8"">233657784999</Timestamp><Current dt:dt=""r8"">0</Current><DateUtc dt:dt=""string"">2017-07-07T14:37:48Z</DateUtc></FrequencyChange></FrequencyChanges></Clock>\n",60.004,1,1729741072,07-07-2017,09:37:48,2:37:48 PM,10,A180716_2T.wav,The NEW ROAD is on the MAP.   ,2Talker,TypeSPINProc,StimList,{SHIFT}They{'}re{SPACE}not{ESCAPE},14211,397690,16,1,10
SPIN,2019,1,"<?xml version=""1.0""?>\n<Clock xmlns:dt=""urn:schemas-microsoft-com:datatypes""><Description dt:dt=""string"">E-Prime Primary Realtime Clock</Description><StartTime><Timestamp dt:dt=""int"">0</Timestamp><DateUtc dt:dt=""string"">2017-07-07T14:37:48Z</DateUtc></StartTime><FrequencyChanges><FrequencyChange><Frequency dt:dt=""r8"">2923105</Frequency><Timestamp dt:dt=""r8"">233657784999</Timestamp><Current dt:dt=""r8"">0</Current><DateUtc dt:dt=""string"">2017-07-07T14:37:48Z</DateUtc></FrequencyChange></FrequencyChanges></Clock>\n",60.004,1,1729741072,07-07-2017,09:37:48,2:37:48 PM,11,A180914_8T.wav,The TRAIN is MOVING FAST.   ,SSN,TypeSPINProc,StimList,{SHIFT}The{SPACE}dreams{SPACE}will{SPACE}be{SPACE}facts{.}{ESCAPE},21884,421312,30,1,11
SPIN,2019,1,"<?xml version=""1.0""?>\n<Clock xmlns:dt=""urn:schemas-microsoft-com:datatypes""><Description dt:dt=""string"">E-Prime Primary Realtime Clock</Description><StartTime><Timestamp dt:dt=""int"">0</Timestamp><DateUtc dt:dt=""string"">2017-07-07T14:37:48Z</DateUtc></StartTime><FrequencyChanges><FrequencyChange><Frequency dt:dt=""r8"">2923105</Frequency><Timestamp dt:dt=""r8"">233657784999</Timestamp><Current dt:dt=""r8"">0</Current><DateUtc dt:dt=""string"">2017-07-07T14:37:48Z</DateUtc></FrequencyChange></FrequencyChanges></Clock>\n",60.004,1,1729741072,07-07-2017,09:37:48,2:37:48 PM,12,A181008_SSN.wav,SOMEONE is CROSSING the ROAD.   ,SSN,TypeSPINProc,StimList,{SHIFT}Someone{SPACE}is{SPACE}crossing{SPACE}the{SPACE}road{.}{ESCAPE},15754,438047,40,1,12
SPIN,2019,1,"<?xml version=""1.0""?>\n<Clock xmlns:dt=""urn:schemas-microsoft-com:datatypes""><Description dt:dt=""string"">E-Prime Primary Realtime Clock</Description><StartTime><Timestamp dt:dt=""int"">0</Timestamp><DateUtc dt:dt=""string"">2017-07-07T14:37:48Z</DateUtc></StartTime><FrequencyChanges><FrequencyChange><Frequency dt:dt=""r8"">2923105</Frequency><Timestamp dt:dt=""r8"">233657784999</Timestamp><Current dt:dt=""r8"">0</Current><DateUtc dt:dt=""string"">2017-07-07T14:37:48Z</DateUtc></FrequencyChange></FrequencyChanges></Clock>\n",60.004,1,1729741072,07-07-2017,09:37:48,2:37:48 PM,13,A181508_1T.wav,SHE BUMPED her HEAD.   ,1T,TypeSPINProc,StimList,{SHIFT}Many{SPACE}people{SPACE}will{SPACE}just{SPACE}start{SPACE}today{.}{ESCAPE},16921,455430,56,1,13
SPIN,2019,1,"<?xml version=""1.0""?>\n<Clock xmlns:dt=""urn:schemas-microsoft-com:datatypes""><Description dt:dt=""string"">E-Prime Primary Realtime Clock</Description><StartTime><Timestamp dt:dt=""int"">0</Timestamp><DateUtc dt:dt=""string"">2017-07-07T14:37:48Z</DateUtc></StartTime><FrequencyChanges><FrequencyChange><Frequency dt:dt=""r8"">2923105</Frequency><Timestamp dt:dt=""r8"">233657784999</Timestamp><Current dt:dt=""r8"">0</Current><DateUtc dt:dt=""string"">2017-07-07T14:37:48Z</DateUtc></FrequencyChange></FrequencyChanges></Clock>\n",60.004,1,1729741072,07-07-2017,09:37:48,2:37:48 PM,14,A181011_SSN.wav,HE BROKE his LEG.   ,SSN,TypeSPINProc,StimList,left{ESCAPE},9106,465213,43,1,14
SPIN,2019,1,"<?xml version=""1.0""?>\n<Clock xmlns:dt=""urn:schemas-microsoft-com:datatypes""><Description dt:dt=""string"">E-Prime Primary Realtime Clock</Description><StartTime><Timestamp dt:dt=""int"">0</Timestamp><DateUtc dt:dt=""string"">2017-07-07T14:37:48Z</DateUtc></StartTime><FrequencyChanges><FrequencyChange><Frequency dt:dt=""r8"">2923105</Frequency><Timestamp dt:dt=""r8"">233657784999</Timestamp><Current dt:dt=""r8"">0</Current><DateUtc dt:dt=""string"">2017-07-07T14:37:48Z</DateUtc></FrequencyChange></FrequencyChanges></Clock>\n",60.004,1,1729741072,07-07-2017,09:37:48,2:37:48 PM,15,A181515_1T.wav,The TRAIN STOPS at the STATION.   ,1T,TypeSPINProc,StimList,"the{SPACE}dessert{SHIFT}{LEFTARROW}{.}{.}{.}he{SPACE}had{SPACE}applepie{,}right{SHIFT}{?}{ESCAPE}",59315,525322,63,1,15
SPIN,2019,1,"<?xml version=""1.0""?>\n<Clock xmlns:dt=""urn:schemas-microsoft-com:datatypes""><Description dt:dt=""string"">E-Prime Primary Realtime Clock</Description><StartTime><Timestamp dt:dt=""int"">0</Timestamp><DateUtc dt:dt=""string"">2017-07-07T14:37:48Z</DateUtc></StartTime><FrequencyChanges><FrequencyChange><Frequency dt:dt=""r8"">2923105</Frequency><Timestamp dt:dt=""r8"">233657784999</Timestamp><Current dt:dt=""r8"">0</Current><DateUtc dt:dt=""string"">2017-07-07T14:37:48Z</DateUtc></FrequencyChange></FrequencyChanges></Clock>\n",60.004,1,1729741072,07-07-2017,09:37:48,2:37:48 PM,16,A180907_8T.wav,The FIVE MEN are WORKING.    ,8Talker,TypeSPINProc,StimList,would{SPACE}you{.}{.}{.}one{SPACE}more{ESCAPE},17660,544896,23,1,16
SPIN,2019,1,"<?xml version=""1.0""?>\n<Clock xmlns:dt=""urn:schemas-microsoft-com:datatypes""><Description dt:dt=""string"">E-Prime Primary Realtime Clock</Description><StartTime><Timestamp dt:dt=""int"">0</Timestamp><DateUtc dt:dt=""string"">2017-07-07T14:37:48Z</DateUtc></StartTime><FrequencyChanges><FrequencyChange><Frequency dt:dt=""r8"">2923105</Frequency><Timestamp dt:dt=""r8"">233657784999</Timestamp><Current dt:dt=""r8"">0</Current><DateUtc dt:dt=""string"">2017-07-07T14:37:48Z</DateUtc></FrequencyChange></FrequencyChanges></Clock>\n",60.004,1,1729741072,07-07-2017,09:37:48,2:37:48 PM,17,A181010_SSN.wav,THEY are RIDING their BICYCLES.   ,SSN,TypeSPINProc,StimList,they{'}re{SPACE}writing{SPACE}their{SPACE}license{ESCAPE},31609,577494,42,1,17
SPIN,2019,1,"<?xml version=""1.0""?>\n<Clock xmlns:dt=""urn:schemas-microsoft-com:datatypes""><Description dt:dt=""string"">E-Prime Primary Realtime Clock</Description><StartTime><Timestamp dt:dt=""int"">0</Timestamp><DateUtc dt:dt=""string"">2017-07-07T14:37:48Z</DateUtc></StartTime><FrequencyChanges><FrequencyChange><Frequency dt:dt=""r8"">2923105</Frequency><Timestamp dt:dt=""r8"">233657784999</Timestamp><Current dt:dt=""r8"">0</Current><DateUtc dt:dt=""string"">2017-07-07T14:37:48Z</DateUtc></FrequencyChange></FrequencyChanges></Clock>\n",60.004,1,1729741072,07-07-2017,09:37:48,2:37:48 PM,18,A181504_1T.wav,The SHOP CLOSED for LUNCH.   ,1T,TypeSPINProc,StimList,"first{,}he{SPACE}drinks{SPACE}some{SPACE}of{SPACE}the{SPACE}soup{.}{SHIFT}We{SPACE}heard{SPACE}the{SPACE}teeth{ESCAPE}",55422,636955,52,1,18
SPIN,2019,1,"<?xml version=""1.0""?>\n<Clock xmlns:dt=""urn:schemas-microsoft-com:datatypes""><Description dt:dt=""string"">E-Prime Primary Realtime Clock</Description><StartTime><Timestamp dt:dt=""int"">0</Timestamp><DateUtc dt:dt=""string"">2017-07-07T14:37:48Z</DateUtc></StartTime><FrequencyChanges><FrequencyChange><Frequency dt:dt=""r8"">2923105</Frequency><Timestamp dt:dt=""r8"">233657784999</Timestamp><Current dt:dt=""r8"">0</Current><DateUtc dt:dt=""string"">2017-07-07T14:37:48Z</DateUtc></FrequencyChange></FrequencyChanges></Clock>\n",60.004,1,1729741072,07-07-2017,09:37:48,2:37:48 PM,19,A180713_2T.wav,The GIRL has a PICTURE BOOK.   ,2Talker,TypeSPINProc,StimList,{SHIFT}The{SPACE}girl{SPACE}has{SPACE}a{SPACE}picture{.}{.}{.}{SHIFT}Build{SPACE}their{ESCAPE},22454,660033,13,1,19
SPIN,2019,1,"<?xml version=""1.0""?>\n<Clock xmlns:dt=""urn:schemas-microsoft-com:datatypes""><Description dt:dt=""string"">E-Prime Primary Realtime Clock</Description><StartTime><Timestamp dt:dt=""int"">0</Timestamp><DateUtc dt:dt=""string"">2017-07-07T14:37:48Z</DateUtc></StartTime><FrequencyChanges><FrequencyChange><Frequency dt:dt=""r8"">2923105</Frequency><Timestamp dt:dt=""r8"">233657784999</Timestamp><Current dt:dt=""r8"">0</Current><DateUtc dt:dt=""string"">2017-07-07T14:37:48Z</DateUtc></FrequencyChange></FrequencyChanges></Clock>\n",60.004,1,1729741072,07-07-2017,09:37:48,2:37:48 PM,20,A180916_8T.wav,The CAR HIT a WALL.   ,SSN,TypeSPINProc,StimList,{SHIFT}Car{ESCAPE},6154,667449,32,1,20
SPIN,2019,1,"<?xml version=""1.0""?>\n<Clock xmlns:dt=""urn:schemas-microsoft-com:datatypes""><Description dt:dt=""string"">E-Prime Primary Realtime Clock</Description><StartTime><Timestamp dt:dt=""int"">0</Timestamp><DateUtc dt:dt=""string"">2017-07-07T14:37:48Z</DateUtc></StartTime><FrequencyChanges><FrequencyChange><Frequency dt:dt=""r8"">2923105</Frequency><Timestamp dt:dt=""r8"">233657784999</Timestamp><Current dt:dt=""r8"">0</Current><DateUtc dt:dt=""string"">2017-07-07T14:37:48Z</DateUtc></FrequencyChange></FrequencyChanges></Clock>\n",60.004,1,1729741072,07-07-2017,09:37:48,2:37:48 PM,21,A180903_8T.wav,THEY are CLIMBING the TREE.   ,8Talker,TypeSPINProc,StimList,fact{ESCAPE},38439,706950,19,1,21
SPIN,2019,1,"<?xml version=""1.0""?>\n<Clock xmlns:dt=""urn:schemas-microsoft-com:datatypes""><Description dt:dt=""string"">E-Prime Primary Realtime Clock</Description><StartTime><Timestamp dt:dt=""int"">0</Timestamp><DateUtc dt:dt=""string"">2017-07-07T14:37:48Z</DateUtc></StartTime><FrequencyChanges><FrequencyChange><Frequency dt:dt=""r8"">2923105</Frequency><Timestamp dt:dt=""r8"">233657784999</Timestamp><Current dt:dt=""r8"">0</Current><DateUtc dt:dt=""string"">2017-07-07T14:37:48Z</DateUtc></FrequencyChange></FrequencyChanges></Clock>\n",60.004,1,1729741072,07-07-2017,09:37:48,2:37:48 PM,22,A180911_8T.wav,The BABY BROKE his CUP.   ,8Talker,TypeSPINProc,StimList,x{ESCAPE},9280,716838,27,1,22
SPIN,2019,1,"<?xml version=""1.0""?>\n<Clock xmlns:dt=""urn:schemas-microsoft-com:datatypes""><Description dt:dt=""string"">E-Prime Primary Realtime Clock</Description><StartTime><Timestamp dt:dt=""int"">0</Timestamp><DateUtc dt:dt=""string"">2017-07-07T14:37:48Z</DateUtc></StartTime><FrequencyChanges><FrequencyChange><Frequency dt:dt=""r8"">2923105</Frequency><Timestamp dt:dt=""r8"">233657784999</Timestamp><Current dt:dt=""r8"">0</Current><DateUtc dt:dt=""string"">2017-07-07T14:37:48Z</DateUtc></FrequencyChange></FrequencyChanges></Clock>\n",60.004,1,1729741072,07-07-2017,09:37:48,2:37:48 PM,23,A180701_2T.wav,The CHILDREN DROPPED the BAG,2Talker,TypeSPINProc,StimList,a{SPACE}boy{SPACE}is{SPACE}helping{SPACE}his{SPACE}mother{ESCAPE},17327,735668,1,1,23
SPIN,2019,1,"<?xml version=""1.0""?>\n<Clock xmlns:dt=""urn:schemas-microsoft-com:datatypes""><Description dt:dt=""string"">E-Prime Primary Realtime Clock</Description><StartTime><Timestamp dt:dt=""int"">0</Timestamp><DateUtc dt:dt=""string"">2017-07-07T14:37:48Z</DateUtc></StartTime><FrequencyChanges><FrequencyChange><Frequency dt:dt=""r8"">2923105</Frequency><Timestamp dt:dt=""r8"">233657784999</Timestamp><Current dt:dt=""r8"">0</Current><DateUtc dt:dt=""string"">2017-07-07T14:37:48Z</DateUtc></FrequencyChange></FrequencyChanges></Clock>\n",60.004,1,1729741072,07-07-2017,09:37:48,2:37:48 PM,24,A181009_SSN.wav,The MAILMAN BROUGHT a LETTER.   ,SSN,TypeSPINProc,StimList,a{SPACE}male{SPACE}{ESCAPE},8008,744148,41,1,24
SPIN,2019,1,"<?xml version=""1.0""?>\n<Clock xmlns:dt=""urn:schemas-microsoft-com:datatypes""><Description dt:dt=""string"">E-Prime Primary Realtime Clock</Description><StartTime><Timestamp dt:dt=""int"">0</Timestamp><DateUtc dt:dt=""string"">2017-07-07T14:37:48Z</DateUtc></StartTime><FrequencyChanges><FrequencyChange><Frequency dt:dt=""r8"">2923105</Frequency><Timestamp dt:dt=""r8"">233657784999</Timestamp><Current dt:dt=""r8"">0</Current><DateUtc dt:dt=""string"">2017-07-07T14:37:48Z</DateUtc></FrequencyChange></FrequencyChanges></Clock>\n",60.004,1,1729741072,07-07-2017,09:37:48,2:37:48 PM,25,A180913_8T.wav,The DINNER PLATE is HOT.   ,SSN,TypeSPINProc,StimList,they{SPACE}didn{'}t{SPACE}play{SPACE}this{SPACE}{ESCAPE},14105,758611,29,1,25
SPIN,2019,1,"<?xml version=""1.0""?>\n<Clock xmlns:dt=""urn:schemas-microsoft-com:datatypes""><Description dt:dt=""string"">E-Prime Primary Realtime Clock</Description><StartTime><Timestamp dt:dt=""int"">0</Timestamp><DateUtc dt:dt=""string"">2017-07-07T14:37:48Z</DateUtc></StartTime><FrequencyChanges><FrequencyChange><Frequency dt:dt=""r8"">2923105</Frequency><Timestamp dt:dt=""r8"">233657784999</Timestamp><Current dt:dt=""r8"">0</Current><DateUtc dt:dt=""string"">2017-07-07T14:37:48Z</DateUtc></FrequencyChange></FrequencyChanges></Clock>\n",60.004,1,1729741072,07-07-2017,09:37:48,2:37:48 PM,26,A181006_SSN.wav,The KITCHEN CLOCK was WRONG.   ,SSN,TypeSPINProc,StimList,{SPACE}is{SPACE}wrong{ESCAPE},20352,779290,38,1,26
SPIN,2019,1,"<?xml version=""1.0""?>\n<Clock xmlns:dt=""urn:schemas-microsoft-com:datatypes""><Description dt:dt=""string"">E-Prime Primary Realtime Clock</Description><StartTime><Timestamp dt:dt=""int"">0</Timestamp><DateUtc dt:dt=""string"">2017-07-07T14:37:48Z</DateUtc></StartTime><FrequencyChanges><FrequencyChange><Frequency dt:dt=""r8"">2923105</Frequency><Timestamp dt:dt=""r8"">233657784999</Timestamp><Current dt:dt=""r8"">0</Current><DateUtc dt:dt=""string"">2017-07-07T14:37:48Z</DateUtc></FrequencyChange></FrequencyChanges></Clock>\n",60.004,1,1729741072,07-07-2017,09:37:48,2:37:48 PM,27,A180711_2T.wav,The BALL is BOUNCING very HIGH.   ,2Talker,TypeSPINProc,StimList,we{SPACE}heard{ESCAPE},15091,794745,11,1,27
SPIN,2019,1,"<?xml version=""1.0""?>\n<Clock xmlns:dt=""urn:schemas-microsoft-com:datatypes""><Description dt:dt=""string"">E-Prime Primary Realtime Clock</Description><StartTime><Timestamp dt:dt=""int"">0</Timestamp><DateUtc dt:dt=""string"">2017-07-07T14:37:48Z</DateUtc></StartTime><FrequencyChanges><FrequencyChange><Frequency dt:dt=""r8"">2923105</Frequency><Timestamp dt:dt=""r8"">233657784999</Timestamp><Current dt:dt=""r8"">0</Current><DateUtc dt:dt=""string"">2017-07-07T14:37:48Z</DateUtc></FrequencyChange></FrequencyChanges></Clock>\n",60.004,1,1729741072,07-07-2017,09:37:48,2:37:48 PM,28,A180904_8T.wav,SHE STOOD near her WINDOW.   ,8Talker,TypeSPINProc,StimList,a{SPACE}rest{ESCAPE},7794,802880,20,1,28
SPIN,2019,1,"<?xml version=""1.0""?>\n<Clock xmlns:dt=""urn:schemas-microsoft-com:datatypes""><Description dt:dt=""string"">E-Prime Primary Realtime Clock</Description><StartTime><Timestamp dt:dt=""int"">0</Timestamp><DateUtc dt:dt=""string"">2017-07-07T14:37:48Z</DateUtc></StartTime><FrequencyChanges><FrequencyChange><Frequency dt:dt=""r8"">2923105</Frequency><Timestamp dt:dt=""r8"">233657784999</Timestamp><Current dt:dt=""r8"">0</Current><DateUtc dt:dt=""string"">2017-07-07T14:37:48Z</DateUtc></FrequencyChange></FrequencyChanges></Clock>\n",60.004,1,1729741072,07-07-2017,09:37:48,2:37:48 PM,29,A181002_SSN.wav,The JANITOR USED a BROOM.   ,SSN,TypeSPINProc,StimList,has{SPACE}the{SPACE}roof{ESCAPE},32223,836742,34,1,29
SPIN,2019,1,"<?xml version=""1.0""?>\n<Clock xmlns:dt=""urn:schemas-microsoft-com:datatypes""><Description dt:dt=""string"">E-Prime Primary Realtime Clock</Description><StartTime><Timestamp dt:dt=""int"">0</Timestamp><DateUtc dt:dt=""string"">2017-07-07T14:37:48Z</DateUtc></StartTime><FrequencyChanges><FrequencyChange><Frequency dt:dt=""r8"">2923105</Frequency><Timestamp dt:dt=""r8"">233657784999</Timestamp><Current dt:dt=""r8"">0</Current><DateUtc dt:dt=""string"">2017-07-07T14:37:48Z</DateUtc></FrequencyChange></FrequencyChanges></Clock>\n",60.004,1,1729741072,07-07-2017,09:37:48,2:37:48 PM,30,A181509_1T.wav,THEY MET SOME FRIENDS.   ,1T,TypeSPINProc,StimList,she{SPACE}think{SPACE}it{'}s{SPACE}his{SPACE}mother{SPACE}and{SPACE}father{.}{SHIFT}She{SPACE}made{SPACE}the{ESCAPE},35933,875500,57,1,30
SPIN,2019,1,"<?xml version=""1.0""?>\n<Clock xmlns:dt=""urn:schemas-microsoft-com:datatypes""><Description dt:dt=""string"">E-Prime Primary Realtime Clock</Description><StartTime><Timestamp dt:dt=""int"">0</Timestamp><DateUtc dt:dt=""string"">2017-07-07T14:37:48Z</DateUtc></StartTime><FrequencyChanges><FrequencyChange><Frequency dt:dt=""r8"">2923105</Frequency><Timestamp dt:dt=""r8"">233657784999</Timestamp><Current dt:dt=""r8"">0</Current><DateUtc dt:dt=""string"">2017-07-07T14:37:48Z</DateUtc></FrequencyChange></FrequencyChanges></Clock>\n",60.004,1,1729741072,07-07-2017,09:37:48,2:37:48 PM,31,A181514_1T.wav,MOTHER TIED the STRING.   ,1T,TypeSPINProc,StimList,{SHIFT}I{SPACE}have{SPACE}a{SPACE}scar{SPACE}on{SPACE}my{SPACE}neck{.}{SHIFT}My{SPACE}parents{SPACE}said{ESCAPE},21688,898402,62,1,31
SPIN,2019,1,"<?xml version=""1.0""?>\n<Clock xmlns:dt=""urn:schemas-microsoft-com:datatypes""><Description dt:dt=""string"">E-Prime Primary Realtime Clock</Description><StartTime><Timestamp dt:dt=""int"">0</Timestamp><DateUtc dt:dt=""string"">2017-07-07T14:37:48Z</DateUtc></StartTime><FrequencyChanges><FrequencyChange><Frequency dt:dt=""r8"">2923105</Frequency><Timestamp dt:dt=""r8"">233657784999</Timestamp><Current dt:dt=""r8"">0</Current><DateUtc dt:dt=""string"">2017-07-07T14:37:48Z</DateUtc></FrequencyChange></FrequencyChanges></Clock>\n",60.004,1,1729741072,07-07-2017,09:37:48,2:37:48 PM,32,A181503_1T.wav,HE is SUCKING his THUMB.   ,1T,TypeSPINProc,StimList,on{SPACE}my{SPACE}head{SPACE}and{SPACE}my{SPACE}hands{ESCAPE},24109,923889,51,1,32
SPIN,2019,1,"<?xml version=""1.0""?>\n<Clock xmlns:dt=""urn:schemas-microsoft-com:datatypes""><Description dt:dt=""string"">E-Prime Primary Realtime Clock</Description><StartTime><Timestamp dt:dt=""int"">0</Timestamp><DateUtc dt:dt=""string"">2017-07-07T14:37:48Z</DateUtc></StartTime><FrequencyChanges><FrequencyChange><Frequency dt:dt=""r8"">2923105</Frequency><Timestamp dt:dt=""r8"">233657784999</Timestamp><Current dt:dt=""r8"">0</Current><DateUtc dt:dt=""string"">2017-07-07T14:37:48Z</DateUtc></FrequencyChange></FrequencyChanges></Clock>\n",60.004,1,1729741072,07-07-2017,09:37:48,2:37:48 PM,33,A180710_2T.wav,THEY had TWO EMPTY BOTTLES.   ,2Talker,TypeSPINProc,StimList,{SHIFT}I{SPACE}wore{SPACE}my{ESCAPE},22456,950751,10,1,33
SPIN,2019,1,"<?xml version=""1.0""?>\n<Clock xmlns:dt=""urn:schemas-microsoft-com:datatypes""><Description dt:dt=""string"">E-Prime Primary Realtime Clock</Description><StartTime><Timestamp dt:dt=""int"">0</Timestamp><DateUtc dt:dt=""string"">2017-07-07T14:37:48Z</DateUtc></StartTime><FrequencyChanges><FrequencyChange><Frequency dt:dt=""r8"">2923105</Frequency><Timestamp dt:dt=""r8"">233657784999</Timestamp><Current dt:dt=""r8"">0</Current><DateUtc dt:dt=""string"">2017-07-07T14:37:48Z</DateUtc></FrequencyChange></FrequencyChanges></Clock>\n",60.004,1,1729741072,07-07-2017,09:37:48,2:37:48 PM,34,A181506_1T.wav,The BOY HURRIED to SCHOOL.   ,1T,TypeSPINProc,StimList,are{SPACE}baking{SPACE}for{SPACE}desserts{ESCAPE},19366,971126,54,1,34
SPIN,2019,1,"<?xml version=""1.0""?>\n<Clock xmlns:dt=""urn:schemas-microsoft-com:datatypes""><Description dt:dt=""string"">E-Prime Primary Realtime Clock</Description><StartTime><Timestamp dt:dt=""int"">0</Timestamp><DateUtc dt:dt=""string"">2017-07-07T14:37:48Z</DateUtc></StartTime><FrequencyChanges><FrequencyChange><Frequency dt:dt=""r8"">2923105</Frequency><Timestamp dt:dt=""r8"">233657784999</Timestamp><Current dt:dt=""r8"">0</Current><DateUtc dt:dt=""string"">2017-07-07T14:37:48Z</DateUtc></FrequencyChange></FrequencyChanges></Clock>\n",60.004,1,1729741072,07-07-2017,09:37:48,2:37:48 PM,35,A180902_8T.wav,The YOUNG BOY LEFT HOME.   ,8Talker,TypeSPINProc,StimList,up{ESCAPE},9091,981933,18,1,35
SPIN,2019,1,"<?xml version=""1.0""?>\n<Clock xmlns:dt=""urn:schemas-microsoft-com:datatypes""><Description dt:dt=""string"">E-Prime Primary Realtime Clock</Description><StartTime><Timestamp dt:dt=""int"">0</Timestamp><DateUtc dt:dt=""string"">2017-07-07T14:37:48Z</DateUtc></StartTime><FrequencyChanges><FrequencyChange><Frequency dt:dt=""r8"">2923105</Frequency><Timestamp dt:dt=""r8"">233657784999</Timestamp><Current dt:dt=""r8"">0</Current><DateUtc dt:dt=""string"">2017-07-07T14:37:48Z</DateUtc></FrequencyChange></FrequencyChanges></Clock>\n",60.004,1,1729741072,07-07-2017,09:37:48,2:37:48 PM,36,A180905_8T.wav,The TABLE has THREE LEGS.   ,SSN,TypeSPINProc,StimList,{SHIFT}The{SPACE}table{SPACE}has{SPACE}three{SPACE}legs{.}{ESCAPE},17204,1000428,21,1,36
SPIN,2019,1,"<?xml version=""1.0""?>\n<Clock xmlns:dt=""urn:schemas-microsoft-com:datatypes""><Description dt:dt=""string"">E-Prime Primary Realtime Clock</Description><StartTime><Timestamp dt:dt=""int"">0</Timestamp><DateUtc dt:dt=""string"">2017-07-07T14:37:48Z</DateUtc></StartTime><FrequencyChanges><FrequencyChange><Frequency dt:dt=""r8"">2923105</Frequency><Timestamp dt:dt=""r8"">233657784999</Timestamp><Current dt:dt=""r8"">0</Current><DateUtc dt:dt=""string"">2017-07-07T14:37:48Z</DateUtc></FrequencyChange></FrequencyChanges></Clock>\n",60.004,1,1729741072,07-07-2017,09:37:48,2:37:48 PM,37,A180712_2T.wav,FATHER FORGOT the BREAD.   ,2Talker,TypeSPINProc,StimList,cook{ESCAPE},29599,1031706,12,1,37
SPIN,2019,1,"<?xml version=""1.0""?>\n<Clock xmlns:dt=""urn:schemas-microsoft-com:datatypes""><Description dt:dt=""string"">E-Prime Primary Realtime Clock</Description><StartTime><Timestamp dt:dt=""int"">0</Timestamp><DateUtc dt:dt=""string"">2017-07-07T14:37:48Z</DateUtc></StartTime><FrequencyChanges><FrequencyChange><Frequency dt:dt=""r8"">2923105</Frequency><Timestamp dt:dt=""r8"">233657784999</Timestamp><Current dt:dt=""r8"">0</Current><DateUtc dt:dt=""string"">2017-07-07T14:37:48Z</DateUtc></FrequencyChange></FrequencyChanges></Clock>\n",60.004,1,1729741072,07-07-2017,09:37:48,2:37:48 PM,38,A181004_SSN.wav,The GOOD BOY is HELPING.   ,SSN,TypeSPINProc,StimList,{SHIFT}{SHIFT}The{SPACE}good{SPACE}boy{SPACE}is{SPACE}helping{SPACE}his{SPACE}mother{.}{ESCAPE},18533,1051321,36,1,38
SPIN,2019,1,"<?xml version=""1.0""?>\n<Clock xmlns:dt=""urn:schemas-microsoft-com:datatypes""><Description dt:dt=""string"">E-Prime Primary Realtime Clock</Description><StartTime><Timestamp dt:dt=""int"">0</Timestamp><DateUtc dt:dt=""string"">2017-07-07T14:37:48Z</DateUtc></StartTime><FrequencyChanges><FrequencyChange><Frequency dt:dt=""r8"">2923105</Frequency><Timestamp dt:dt=""r8"">233657784999</Timestamp><Current dt:dt=""r8"">0</Current><DateUtc dt:dt=""string"">2017-07-07T14:37:48Z</DateUtc></FrequencyChange></FrequencyChanges></Clock>\n",60.004,1,1729741072,07-07-2017,09:37:48,2:37:48 PM,39,A181502_1T.wav,The OVEN is TOO HOT.,1T,TypeSPINProc,StimList,{SHIFT}Monday{SPACE}is{SPACE}the{SPACE}first{SPACE}day{SPACE}of{SPACE}a{SPACE}week{.}{ESCAPE},23048,1075935,50,1,39
SPIN,2019,1,"<?xml version=""1.0""?>\n<Clock xmlns:dt=""urn:schemas-microsoft-com:datatypes""><Description dt:dt=""string"">E-Prime Primary Realtime Clock</Description><StartTime><Timestamp dt:dt=""int"">0</Timestamp><DateUtc dt:dt=""string"">2017-07-07T14:37:48Z</DateUtc></StartTime><FrequencyChanges><FrequencyChange><Frequency dt:dt=""r8"">2923105</Frequency><Timestamp dt:dt=""r8"">233657784999</Timestamp><Current dt:dt=""r8"">0</Current><DateUtc dt:dt=""string"">2017-07-07T14:37:48Z</DateUtc></FrequencyChange></FrequencyChanges></Clock>\n",60.004,1,1729741072,07-07-2017,09:37:48,2:37:48 PM,40,A180915_8T.wav,The CHILD DRANK some MILK.   ,SSN,TypeSPINProc,StimList,{SHIFT}Child{SPACE}drinks{SPACE}a{SPACE}litte{ESCAPE},21941,1098910,31,1,40
SPIN,2019,1,"<?xml version=""1.0""?>\n<Clock xmlns:dt=""urn:schemas-microsoft-com:datatypes""><Description dt:dt=""string"">E-Prime Primary Realtime Clock</Description><StartTime><Timestamp dt:dt=""int"">0</Timestamp><DateUtc dt:dt=""string"">2017-07-07T14:37:48Z</DateUtc></StartTime><FrequencyChanges><FrequencyChange><Frequency dt:dt=""r8"">2923105</Frequency><Timestamp dt:dt=""r8"">233657784999</Timestamp><Current dt:dt=""r8"">0</Current><DateUtc dt:dt=""string"">2017-07-07T14:37:48Z</DateUtc></FrequencyChange></FrequencyChanges></Clock>\n",60.004,1,1729741072,07-07-2017,09:37:48,2:37:48 PM,41,A181510_1T.wav,The RAINCOAT is HANGING UP.  ,1T,TypeSPINProc,StimList,agree{.}{.}{.}{SHIFT}Monday{SPACE}is{SPACE}the{SPACE}first{ESCAPE},29234,1129484,58,1,41
SPIN,2019,1,"<?xml version=""1.0""?>\n<Clock xmlns:dt=""urn:schemas-microsoft-com:datatypes""><Description dt:dt=""string"">E-Prime Primary Realtime Clock</Description><StartTime><Timestamp dt:dt=""int"">0</Timestamp><DateUtc dt:dt=""string"">2017-07-07T14:37:48Z</DateUtc></StartTime><FrequencyChanges><FrequencyChange><Frequency dt:dt=""r8"">2923105</Frequency><Timestamp dt:dt=""r8"">233657784999</Timestamp><Current dt:dt=""r8"">0</Current><DateUtc dt:dt=""string"">2017-07-07T14:37:48Z</DateUtc></FrequencyChange></FrequencyChanges></Clock>\n",60.004,1,1729741072,07-07-2017,09:37:48,2:37:48 PM,42,A181001_SSN.wav,A DISH TOWEL is by the SINK.   ,SSN,TypeSPINProc,StimList,{SHIFT}The{SPACE}dish{SPACE}towel{SPACE}is{SPACE}by{SPACE}the{SPACE}sink{.}{ESCAPE},21509,1152474,33,1,42
SPIN,2019,1,"<?xml version=""1.0""?>\n<Clock xmlns:dt=""urn:schemas-microsoft-com:datatypes""><Description dt:dt=""string"">E-Prime Primary Realtime Clock</Description><StartTime><Timestamp dt:dt=""int"">0</Timestamp><DateUtc dt:dt=""string"">2017-07-07T14:37:48Z</DateUtc></StartTime><FrequencyChanges><FrequencyChange><Frequency dt:dt=""r8"">2923105</Frequency><Timestamp dt:dt=""r8"">233657784999</Timestamp><Current dt:dt=""r8"">0</Current><DateUtc dt:dt=""string"">2017-07-07T14:37:48Z</DateUtc></FrequencyChange></FrequencyChanges></Clock>\n",60.004,1,1729741072,07-07-2017,09:37:48,2:37:48 PM,43,A181014_SSN.wav,The GROUND was VERY HARD.   ,SSN,TypeSPINProc,StimList,{SHIFT}{SHIFT}the{SPACE}groud{SPACE}is{SPACE}very{SPACE}hard{ESCAPE},34761,1188408,46,1,43
SPIN,2019,1,"<?xml version=""1.0""?>\n<Clock xmlns:dt=""urn:schemas-microsoft-com:datatypes""><Description dt:dt=""string"">E-Prime Primary Realtime Clock</Description><StartTime><Timestamp dt:dt=""int"">0</Timestamp><DateUtc dt:dt=""string"">2017-07-07T14:37:48Z</DateUtc></StartTime><FrequencyChanges><FrequencyChange><Frequency dt:dt=""r8"">2923105</Frequency><Timestamp dt:dt=""r8"">233657784999</Timestamp><Current dt:dt=""r8"">0</Current><DateUtc dt:dt=""string"">2017-07-07T14:37:48Z</DateUtc></FrequencyChange></FrequencyChanges></Clock>\n",60.004,1,1729741072,07-07-2017,09:37:48,2:37:48 PM,44,A181012_SSN.wav,The MILK was by the FRONT DOOR.   ,SSN,TypeSPINProc,StimList,her{SPACE}nose{SPACE}is{SPACE}{ESCAPE},16594,1207639,44,1,44
SPIN,2019,1,"<?xml version=""1.0""?>\n<Clock xmlns:dt=""urn:schemas-microsoft-com:datatypes""><Description dt:dt=""string"">E-Prime Primary Realtime Clock</Description><StartTime><Timestamp dt:dt=""int"">0</Timestamp><DateUtc dt:dt=""string"">2017-07-07T14:37:48Z</DateUtc></StartTime><FrequencyChanges><FrequencyChange><Frequency dt:dt=""r8"">2923105</Frequency><Timestamp dt:dt=""r8"">233657784999</Timestamp><Current dt:dt=""r8"">0</Current><DateUtc dt:dt=""string"">2017-07-07T14:37:48Z</DateUtc></FrequencyChange></FrequencyChanges></Clock>\n",60.004,1,1729741072,07-07-2017,09:37:48,2:37:48 PM,45,A180910_8T.wav,THEY WENT on a VACATION.   ,SSN,TypeSPINProc,StimList,they{SPACE}wonder{SPACE}if{SPACE}they{SPACE}have{SPACE}a{SPACE}vacation{ESCAPE},25425,1235285,26,1,45
SPIN,2019,1,"<?xml version=""1.0""?>\n<Clock xmlns:dt=""urn:schemas-microsoft-com:datatypes""><Description dt:dt=""string"">E-Prime Primary Realtime Clock</Description><StartTime><Timestamp dt:dt=""int"">0</Timestamp><DateUtc dt:dt=""string"">2017-07-07T14:37:48Z</DateUtc></StartTime><FrequencyChanges><FrequencyChange><Frequency dt:dt=""r8"">2923105</Frequency><Timestamp dt:dt=""r8"">233657784999</Timestamp><Current dt:dt=""r8"">0</Current><DateUtc dt:dt=""string"">2017-07-07T14:37:48Z</DateUtc></FrequencyChange></FrequencyChanges></Clock>\n",60.004,1,1729741072,07-07-2017,09:37:48,2:37:48 PM,46,A180706_2T.wav,MOTHER GOT a SAUCEPAN.,2Talker,TypeSPINProc,StimList,colour{SPACE}of{SPACE}a{SPACE}lemon{ESCAPE},22476,1259084,6,1,46
SPIN,2019,1,"<?xml version=""1.0""?>\n<Clock xmlns:dt=""urn:schemas-microsoft-com:datatypes""><Description dt:dt=""string"">E-Prime Primary Realtime Clock</Description><StartTime><Timestamp dt:dt=""int"">0</Timestamp><DateUtc dt:dt=""string"">2017-07-07T14:37:48Z</DateUtc></StartTime><FrequencyChanges><FrequencyChange><Frequency dt:dt=""r8"">2923105</Frequency><Timestamp dt:dt=""r8"">233657784999</Timestamp><Current dt:dt=""r8"">0</Current><DateUtc dt:dt=""string"">2017-07-07T14:37:48Z</DateUtc></FrequencyChange></FrequencyChanges></Clock>\n",60.004,1,1729741072,07-07-2017,09:37:48,2:37:48 PM,47,A181016_SSN.wav,The CHICKEN LAID some EGGS.   ,SSN,TypeSPINProc,StimList,the{SPACE}chicken{SPACE}lays{SPACE}its{SPACE}eggs{.}{ESCAPE},38920,1299777,48,1,47
SPIN,2019,1,"<?xml version=""1.0""?>\n<Clock xmlns:dt=""urn:schemas-microsoft-com:datatypes""><Description dt:dt=""string"">E-Prime Primary Realtime Clock</Description><StartTime><Timestamp dt:dt=""int"">0</Timestamp><DateUtc dt:dt=""string"">2017-07-07T14:37:48Z</DateUtc></StartTime><FrequencyChanges><FrequencyChange><Frequency dt:dt=""r8"">2923105</Frequency><Timestamp dt:dt=""r8"">233657784999</Timestamp><Current dt:dt=""r8"">0</Current><DateUtc dt:dt=""string"">2017-07-07T14:37:48Z</DateUtc></FrequencyChange></FrequencyChanges></Clock>\n",60.004,1,1729741072,07-07-2017,09:37:48,2:37:48 PM,48,A181505_1T.wav,The DRIVER STARTED the ENGINE.   ,1T,TypeSPINProc,StimList,people{SPACE}are{.}{.}{.}a{SPACE}quarter{ESCAPE},19147,1320568,53,1,48
SPIN,2019,1,"<?xml version=""1.0""?>\n<Clock xmlns:dt=""urn:schemas-microsoft-com:datatypes""><Description dt:dt=""string"">E-Prime Primary Realtime Clock</Description><StartTime><Timestamp dt:dt=""int"">0</Timestamp><DateUtc dt:dt=""string"">2017-07-07T14:37:48Z</DateUtc></StartTime><FrequencyChanges><FrequencyChange><Frequency dt:dt=""r8"">2923105</Frequency><Timestamp dt:dt=""r8"">233657784999</Timestamp><Current dt:dt=""r8"">0</Current><DateUtc dt:dt=""string"">2017-07-07T14:37:48Z</DateUtc></FrequencyChange></FrequencyChanges></Clock>\n",60.004,1,1729741072,07-07-2017,09:37:48,2:37:48 PM,49,A180708_2T.wav,The YOUNG PEOPLE are DANCING.,2Talker,TypeSPINProc,StimList,right{SHIFT}{?}{ESCAPE},19027,1340830,8,1,49
SPIN,2019,1,"<?xml version=""1.0""?>\n<Clock xmlns:dt=""urn:schemas-microsoft-com:datatypes""><Description dt:dt=""string"">E-Prime Primary Realtime Clock</Description><StartTime><Timestamp dt:dt=""int"">0</Timestamp><DateUtc dt:dt=""string"">2017-07-07T14:37:48Z</DateUtc></StartTime><FrequencyChanges><FrequencyChange><Frequency dt:dt=""r8"">2923105</Frequency><Timestamp dt:dt=""r8"">233657784999</Timestamp><Current dt:dt=""r8"">0</Current><DateUtc dt:dt=""string"">2017-07-07T14:37:48Z</DateUtc></FrequencyChange></FrequencyChanges></Clock>\n",60.004,1,1729741072,07-07-2017,09:37:48,2:37:48 PM,50,A181513_1T.wav,THEY WALKED ACROSS the GRASS.   ,1T,TypeSPINProc,StimList,a{SPACE}quarter{SPACE}is{SPACE}25{SPACE}cents{.}{SPACE}{SHIFT}I{SPACE}wore{SPACE}my{SPACE}{SHIFT}hat{ESCAPE},24442,1366677,61,1,50
SPIN,2019,1,"<?xml version=""1.0""?>\n<Clock xmlns:dt=""urn:schemas-microsoft-com:datatypes""><Description dt:dt=""string"">E-Prime Primary Realtime Clock</Description><StartTime><Timestamp dt:dt=""int"">0</Timestamp><DateUtc dt:dt=""string"">2017-07-07T14:37:48Z</DateUtc></StartTime><FrequencyChanges><FrequencyChange><Frequency dt:dt=""r8"">2923105</Frequency><Timestamp dt:dt=""r8"">233657784999</Timestamp><Current dt:dt=""r8"">0</Current><DateUtc dt:dt=""string"">2017-07-07T14:37:48Z</DateUtc></FrequencyChange></FrequencyChanges></Clock>\n",60.004,1,1729741072,07-07-2017,09:37:48,2:37:48 PM,51,A180704_2T.wav,SHE FOUND her PURSE.,2Talker,TypeSPINProc,StimList,on{SPACE}my{SPACE}hat{.}{SHIFT}In{SPACE}spring{ESCAPE},31163,1404146,4,1,51
SPIN,2019,1,"<?xml version=""1.0""?>\n<Clock xmlns:dt=""urn:schemas-microsoft-com:datatypes""><Description dt:dt=""string"">E-Prime Primary Realtime Clock</Description><StartTime><Timestamp dt:dt=""int"">0</Timestamp><DateUtc dt:dt=""string"">2017-07-07T14:37:48Z</DateUtc></StartTime><FrequencyChanges><FrequencyChange><Frequency dt:dt=""r8"">2923105</Frequency><Timestamp dt:dt=""r8"">233657784999</Timestamp><Current dt:dt=""r8"">0</Current><DateUtc dt:dt=""string"">2017-07-07T14:37:48Z</DateUtc></FrequencyChange></FrequencyChanges></Clock>\n",60.004,1,1729741072,07-07-2017,09:37:48,2:37:48 PM,52,A181507_1T.wav,Some NICE PEOPLE are COMING.   ,1T,TypeSPINProc,StimList,at{SPACE}breakfast{.}{.}{.}{ESCAPE},38054,1445168,55,1,52
SPIN,2019,1,"<?xml version=""1.0""?>\n<Clock xmlns:dt=""urn:schemas-microsoft-com:datatypes""><Description dt:dt=""string"">E-Prime Primary Realtime Clock</Description><StartTime><Timestamp dt:dt=""int"">0</Timestamp><DateUtc dt:dt=""string"">2017-07-07T14:37:48Z</DateUtc></StartTime><FrequencyChanges><FrequencyChange><Frequency dt:dt=""r8"">2923105</Frequency><Timestamp dt:dt=""r8"">233657784999</Timestamp><Current dt:dt=""r8"">0</Current><DateUtc dt:dt=""string"">2017-07-07T14:37:48Z</DateUtc></FrequencyChange></FrequencyChanges></Clock>\n",60.004,1,1729741072,07-07-2017,09:37:48,2:37:48 PM,53,A180912_8T.wav,The LADY PACKED her BAG.   ,SSN,TypeSPINProc,StimList,the{SPACE}lady{SPACE}packed{SPACE}her{SPACE}bag{ESCAPE},17316,1463711,28,1,53
SPIN,2019,1,"<?xml version=""1.0""?>\n<Clock xmlns:dt=""urn:schemas-microsoft-com:datatypes""><Description dt:dt=""string"">E-Prime Primary Realtime Clock</Description><StartTime><Timestamp dt:dt=""int"">0</Timestamp><DateUtc dt:dt=""string"">2017-07-07T14:37:48Z</DateUtc></StartTime><FrequencyChanges><FrequencyChange><Frequency dt:dt=""r8"">2923105</Frequency><Timestamp dt:dt=""r8"">233657784999</Timestamp><Current dt:dt=""r8"">0</Current><DateUtc dt:dt=""string"">2017-07-07T14:37:48Z</DateUtc></FrequencyChange></FrequencyChanges></Clock>\n",60.004,1,1729741072,07-07-2017,09:37:48,2:37:48 PM,54,A180715_2T.wav,HE is HOLDING his NOSE.   ,2Talker,TypeSPINProc,StimList,there{SPACE}is{SPACE}a{SPACE}scar{SPACE}on{SPACE}my{SPACE}neck{ESCAPE},18906,1483517,15,1,54
SPIN,2019,1,"<?xml version=""1.0""?>\n<Clock xmlns:dt=""urn:schemas-microsoft-com:datatypes""><Description dt:dt=""string"">E-Prime Primary Realtime Clock</Description><StartTime><Timestamp dt:dt=""int"">0</Timestamp><DateUtc dt:dt=""string"">2017-07-07T14:37:48Z</DateUtc></StartTime><FrequencyChanges><FrequencyChange><Frequency dt:dt=""r8"">2923105</Frequency><Timestamp dt:dt=""r8"">233657784999</Timestamp><Current dt:dt=""r8"">0</Current><DateUtc dt:dt=""string"">2017-07-07T14:37:48Z</DateUtc></FrequencyChange></FrequencyChanges></Clock>\n",60.004,1,1729741072,07-07-2017,09:37:48,2:37:48 PM,55,A180705_2T.wav,The FRUIT IS on the GROUND.   ,2Talker,TypeSPINProc,StimList,for{SPACE}desserts{.}{.}{.}{ESCAPE},21953,1506796,5,1,55
SPIN,2019,1,"<?xml version=""1.0""?>\n<Clock xmlns:dt=""urn:schemas-microsoft-com:datatypes""><Description dt:dt=""string"">E-Prime Primary Realtime Clock</Description><StartTime><Timestamp dt:dt=""int"">0</Timestamp><DateUtc dt:dt=""string"">2017-07-07T14:37:48Z</DateUtc></StartTime><FrequencyChanges><FrequencyChange><Frequency dt:dt=""r8"">2923105</Frequency><Timestamp dt:dt=""r8"">233657784999</Timestamp><Current dt:dt=""r8"">0</Current><DateUtc dt:dt=""string"">2017-07-07T14:37:48Z</DateUtc></FrequencyChange></FrequencyChanges></Clock>\n",60.004,1,1729741072,07-07-2017,09:37:48,2:37:48 PM,56,A181013_SSN.wav,The SHIRTS are HANGING in the CLOSET.   ,SSN,TypeSPINProc,StimList,the{SPACE}shirts{SPACE}are{SPACE}hanging{SPACE}on{SPACE}the{SPACE}{ESCAPE},19892,1528067,45,1,56
SPIN,2019,1,"<?xml version=""1.0""?>\n<Clock xmlns:dt=""urn:schemas-microsoft-com:datatypes""><Description dt:dt=""string"">E-Prime Primary Realtime Clock</Description><StartTime><Timestamp dt:dt=""int"">0</Timestamp><DateUtc dt:dt=""string"">2017-07-07T14:37:48Z</DateUtc></StartTime><FrequencyChanges><FrequencyChange><Frequency dt:dt=""r8"">2923105</Frequency><Timestamp dt:dt=""r8"">233657784999</Timestamp><Current dt:dt=""r8"">0</Current><DateUtc dt:dt=""string"">2017-07-07T14:37:48Z</DateUtc></FrequencyChange></FrequencyChanges></Clock>\n",60.004,1,1729741072,07-07-2017,09:37:48,2:37:48 PM,57,A180703_2T.wav,The FLOOR LOOKED CLEAN. ,2Talker,TypeSPINProc,StimList,{SHIFT}I{SPACE}wore{SPACE}my{SPACE}hat{ESCAPE},13662,1542802,3,1,57
SPIN,2019,1,"<?xml version=""1.0""?>\n<Clock xmlns:dt=""urn:schemas-microsoft-com:datatypes""><Description dt:dt=""string"">E-Prime Primary Realtime Clock</Description><StartTime><Timestamp dt:dt=""int"">0</Timestamp><DateUtc dt:dt=""string"">2017-07-07T14:37:48Z</DateUtc></StartTime><FrequencyChanges><FrequencyChange><Frequency dt:dt=""r8"">2923105</Frequency><Timestamp dt:dt=""r8"">233657784999</Timestamp><Current dt:dt=""r8"">0</Current><DateUtc dt:dt=""string"">2017-07-07T14:37:48Z</DateUtc></FrequencyChange></FrequencyChanges></Clock>\n",60.004,1,1729741072,07-07-2017,09:37:48,2:37:48 PM,58,A180908_8T.wav,HE LISTENED TO his FATHER.   ,SSN,TypeSPINProc,StimList,you{SPACE}listen{SPACE}to{SPACE}response{ESCAPE},37332,1581455,24,1,58
SPIN,2019,1,"<?xml version=""1.0""?>\n<Clock xmlns:dt=""urn:schemas-microsoft-com:datatypes""><Description dt:dt=""string"">E-Prime Primary Realtime Clock</Description><StartTime><Timestamp dt:dt=""int"">0</Timestamp><DateUtc dt:dt=""string"">2017-07-07T14:37:48Z</DateUtc></StartTime><FrequencyChanges><FrequencyChange><Frequency dt:dt=""r8"">2923105</Frequency><Timestamp dt:dt=""r8"">233657784999</Timestamp><Current dt:dt=""r8"">0</Current><DateUtc dt:dt=""string"">2017-07-07T14:37:48Z</DateUtc></FrequencyChange></FrequencyChanges></Clock>\n",60.004,1,1729741072,07-07-2017,09:37:48,2:37:48 PM,59,A180709_2T.wav,The BUS LEFT EARLY.   ,2Talker,TypeSPINProc,StimList,monday{SPACE}is{SPACE}the{SPACE}first{SPACE}day{SPACE}of{SPACE}a{SPACE}week{ESCAPE},16063,1598566,9,1,59
SPIN,2019,1,"<?xml version=""1.0""?>\n<Clock xmlns:dt=""urn:schemas-microsoft-com:datatypes""><Description dt:dt=""string"">E-Prime Primary Realtime Clock</Description><StartTime><Timestamp dt:dt=""int"">0</Timestamp><DateUtc dt:dt=""string"">2017-07-07T14:37:48Z</DateUtc></StartTime><FrequencyChanges><FrequencyChange><Frequency dt:dt=""r8"">2923105</Frequency><Timestamp dt:dt=""r8"">233657784999</Timestamp><Current dt:dt=""r8"">0</Current><DateUtc dt:dt=""string"">2017-07-07T14:37:48Z</DateUtc></FrequencyChange></FrequencyChanges></Clock>\n",60.004,1,1729741072,07-07-2017,09:37:48,2:37:48 PM,60,A181005_SSN.wav,THEY FOLLOWED the PATH.   ,SSN,TypeSPINProc,StimList,they{SPACE}follow{SPACE}the{SPACE}cat{ESCAPE},12149,1611501,37,1,60
SPIN,2019,1,"<?xml version=""1.0""?>\n<Clock xmlns:dt=""urn:schemas-microsoft-com:datatypes""><Description dt:dt=""string"">E-Prime Primary Realtime Clock</Description><StartTime><Timestamp dt:dt=""int"">0</Timestamp><DateUtc dt:dt=""string"">2017-07-07T14:37:48Z</DateUtc></StartTime><FrequencyChanges><FrequencyChange><Frequency dt:dt=""r8"">2923105</Frequency><Timestamp dt:dt=""r8"">233657784999</Timestamp><Current dt:dt=""r8"">0</Current><DateUtc dt:dt=""string"">2017-07-07T14:37:48Z</DateUtc></FrequencyChange></FrequencyChanges></Clock>\n",60.004,1,1729741072,07-07-2017,09:37:48,2:37:48 PM,61,A181512_1T.wav,The DAUGHTER SET the TABLE.   ,1T,TypeSPINProc,StimList,he{SPACE}had{SPACE}an{SPACE}applepie{ESCAPE},24469,1637404,60,1,61
SPIN,2019,1,"<?xml version=""1.0""?>\n<Clock xmlns:dt=""urn:schemas-microsoft-com:datatypes""><Description dt:dt=""string"">E-Prime Primary Realtime Clock</Description><StartTime><Timestamp dt:dt=""int"">0</Timestamp><DateUtc dt:dt=""string"">2017-07-07T14:37:48Z</DateUtc></StartTime><FrequencyChanges><FrequencyChange><Frequency dt:dt=""r8"">2923105</Frequency><Timestamp dt:dt=""r8"">233657784999</Timestamp><Current dt:dt=""r8"">0</Current><DateUtc dt:dt=""string"">2017-07-07T14:37:48Z</DateUtc></FrequencyChange></FrequencyChanges></Clock>\n",60.004,1,1729741072,07-07-2017,09:37:48,2:37:48 PM,62,A181501_1T.wav,A MAN is TURNING the FAUCET.   ,1T,TypeSPINProc,StimList,birds{SPACE}build{SPACE}their{SPACE}nest{SPACE}in{SPACE}trees{ESCAPE},21337,1660970,49,1,62
SPIN,2019,1,"<?xml version=""1.0""?>\n<Clock xmlns:dt=""urn:schemas-microsoft-com:datatypes""><Description dt:dt=""string"">E-Prime Primary Realtime Clock</Description><StartTime><Timestamp dt:dt=""int"">0</Timestamp><DateUtc dt:dt=""string"">2017-07-07T14:37:48Z</DateUtc></StartTime><FrequencyChanges><FrequencyChange><Frequency dt:dt=""r8"">2923105</Frequency><Timestamp dt:dt=""r8"">233657784999</Timestamp><Current dt:dt=""r8"">0</Current><DateUtc dt:dt=""string"">2017-07-07T14:37:48Z</DateUtc></FrequencyChange></FrequencyChanges></Clock>\n",60.004,1,1729741072,07-07-2017,09:37:48,2:37:48 PM,63,A181007_SSN.wav,The DOG JUMPED ON the CHAIR.   ,SSN,TypeSPINProc,StimList,the{SPACE}dog{SPACE}jumped{SPACE}off{SPACE}the{SPACE}chair{ESCAPE},23931,1686113,39,1,63
SPIN,2019,1,"<?xml version=""1.0""?>\n<Clock xmlns:dt=""urn:schemas-microsoft-com:datatypes""><Description dt:dt=""string"">E-Prime Primary Realtime Clock</Description><StartTime><Timestamp dt:dt=""int"">0</Timestamp><DateUtc dt:dt=""string"">2017-07-07T14:37:48Z</DateUtc></StartTime><FrequencyChanges><FrequencyChange><Frequency dt:dt=""r8"">2923105</Frequency><Timestamp dt:dt=""r8"">233657784999</Timestamp><Current dt:dt=""r8"">0</Current><DateUtc dt:dt=""string"">2017-07-07T14:37:48Z</DateUtc></FrequencyChange></FrequencyChanges></Clock>\n",60.004,1,1729741072,07-07-2017,09:37:48,2:37:48 PM,64,A180901_8T.wav,The BOOK TELLS a STORY.   ,8Talker,TypeSPINProc,StimList,tell{SPACE}his{SPACE}story{SPACE}he{SPACE}loves{SPACE}you{ESCAPE},20780,1710327,17,1,64