ExperimentName,Subject,Session,Clock.Information,Display.RefreshRate,Group,RandomSeed,SessionDate,SessionTime,SessionTimeUtc,Block,Filename,FileText,Noise,Procedure,Running,Slide1.RESP,Slide1.RT,Slide1.RTTime,StimList,StimList.Cycle,StimList.Sample
SPIN,2003,1,"<?xml version=""1.0""?>\n<Clock xmlns:dt=""urn:schemas-microsoft-com:datatypes""><Description dt:dt=""string"">E-Prime Primary Realtime Clock</Description><StartTime><Timestamp dt:dt=""int"">0</Timestamp><DateUtc dt:dt=""string"">2017-06-26T18:32:02Z</DateUtc></StartTime><FrequencyChanges><FrequencyChange><Frequency dt:dt=""r8"">2923095</Frequency><Timestamp dt:dt=""r8"">15953492135</Timestamp><Current dt:dt=""r8"">0</Current><DateUtc dt:dt=""string"">2017-06-26T18:32:02Z</DateUtc></FrequencyChange></FrequencyChanges></Clock>\n",60.004,1,-1225805330,06-26-2017,13:32:02,6:32:02 PM,1,A180707_2T.wav,THEY WASHED in COLD WATER.   ,2Talker,TypeSPINProc,StimList,water{SPACE}twenty{-}eight{ENTER}{ESCAPE},20418,73207,7,1,1
SPIN,2003,1,"<?xml version=""1.0""?>\n<Clock xmlns:dt=""urn:schemas-microsoft-com:datatypes""><Description dt:dt=""string"">E-Prime Primary Realtime Clock</Description><StartTime><Timestamp dt:dt=""int"">0</Timestamp><DateUtc dt:dt=""string"">2017-06-26T18:32:02Z</DateUtc></StartTime><FrequencyChanges><FrequencyChange><Frequency dt:dt=""r8"">2923095</Frequency><Timestamp dt:dt=""r8"">15953492135</Timestamp><Current dt:dt=""r8"">0</Current><DateUtc dt:dt=""string"">2017-06-26T18:32:02Z</DateUtc></FrequencyChange></FrequencyChanges></Clock>\n",60.004,1,-1225805330,06-26-2017,13:32:02,6:32:02 PM,2,A180903_8T.wav,THEY are CLIMBING the TREE.   ,8Talker,TypeSPINProc,StimList,climate{SPACE}cloud{SPACE}loud{SPACE}{ENTER}{ESCAPE},9289,84110,19,1,2
SPIN,2003,1,"<?xml version=""1.0""?>\n<Clock xmlns:dt=""urn:schemas-microsoft-com:datatypes""><Description dt:dt=""string"">E-Prime Primary Realtime Clock</Description><StartTime><Timestamp dt:dt=""int"">0</Timestamp><DateUtc dt:dt=""string"">2017-06-26T18:32:02Z</DateUtc></StartTime><FrequencyChanges><FrequencyChange><Frequency dt:dt=""r8"">2923095</Frequency><Timestamp dt:dt=""r8"">15953492135</Timestamp><Current dt:dt=""r8"">0</Current><DateUtc dt:dt=""string"">2017-06-26T18:32:02Z</DateUtc></FrequencyChange></FrequencyChanges></Clock>\n",60.004,1,-1225805330,06-26-2017,13:32:02,6:32:02 PM,3,A180705_2T.wav,The FRUIT IS on the GROUND.   ,2Talker,TypeSPINProc,StimList,just{SPACE}on{SPACE}the{SPACE}ground{SPACE}{SHIFT}Feb{SPACE}{ESCAPE},18274,103261,5,1,3
SPIN,2003,1,"<?xml version=""1.0""?>\n<Clock xmlns:dt=""urn:schemas-microsoft-com:datatypes""><Description dt:dt=""string"">E-Prime Primary Realtime Clock</Description><StartTime><Timestamp dt:dt=""int"">0</Timestamp><DateUtc dt:dt=""string"">2017-06-26T18:32:02Z</DateUtc></StartTime><FrequencyChanges><FrequencyChange><Frequency dt:dt=""r8"">2923095</Frequency><Timestamp dt:dt=""r8"">15953492135</Timestamp><Current dt:dt=""r8"">0</Current><DateUtc dt:dt=""string"">2017-06-26T18:32:02Z</DateUtc></FrequencyChange></FrequencyChanges></Clock>\n",60.004,1,-1225805330,06-26-2017,13:32:02,6:32:02 PM,4,A181514_1T.wav,MOTHER TIED the STRING.   ,1T,TypeSPINProc,StimList,scars{SPACE}my{SPACE}parents{SPACE}said{SPACE}{ENTER}{ESCAPE},16325,120428,62,1,4
SPIN,2003,1,"<?xml version=""1.0""?>\n<Clock xmlns:dt=""urn:schemas-microsoft-com:datatypes""><Description dt:dt=""string"">E-Prime Primary Realtime Clock</Description><StartTime><Timestamp dt:dt=""int"">0</Timestamp><DateUtc dt:dt=""string"">2017-06-26T18:32:02Z</DateUtc></StartTime><FrequencyChanges><FrequencyChange><Frequency dt:dt=""r8"">2923095</Frequency><Timestamp dt:dt=""r8"">15953492135</Timestamp><Current dt:dt=""r8"">0</Current><DateUtc dt:dt=""string"">2017-06-26T18:32:02Z</DateUtc></FrequencyChange></FrequencyChanges></Clock>\n",60.004,1,-1225805330,06-26-2017,13:32:02,6:32:02 PM,5,A181515_1T.wav,The TRAIN STOPS at the STATION.   ,1T,TypeSPINProc,StimList,the{SPACE}train{SPACE}stops{SPACE}at{SPACE}the{SPACE}station{ESCAPE},16699,137883,63,1,5
SPIN,2003,1,"<?xml version=""1.0""?>\n<Clock xmlns:dt=""urn:schemas-microsoft-com:datatypes""><Description dt:dt=""string"">E-Prime Primary Realtime Clock</Description><StartTime><Timestamp dt:dt=""int"">0</Timestamp><DateUtc dt:dt=""string"">2017-06-26T18:32:02Z</DateUtc></StartTime><FrequencyChanges><FrequencyChange><Frequency dt:dt=""r8"">2923095</Frequency><Timestamp dt:dt=""r8"">15953492135</Timestamp><Current dt:dt=""r8"">0</Current><DateUtc dt:dt=""string"">2017-06-26T18:32:02Z</DateUtc></FrequencyChange></FrequencyChanges></Clock>\n",60.004,1,-1225805330,06-26-2017,13:32:02,6:32:02 PM,6,A180710_2T.wav,THEY had TWO EMPTY BOTTLES.   ,2Talker,TypeSPINProc,StimList,they{SPACE}had{SPACE}two{SPACE}ashes{SPACE}{ESCAPE},8509,148242,10,1,6
SPIN,2003,1,"<?xml version=""1.0""?>\n<Clock xmlns:dt=""urn:schemas-microsoft-com:datatypes""><Description dt:dt=""string"">E-Prime Primary Realtime Clock</Description><StartTime><Timestamp dt:dt=""int"">0</Timestamp><DateUtc dt:dt=""string"">2017-06-26T18:32:02Z</DateUtc></StartTime><FrequencyChanges><FrequencyChange><Frequency dt:dt=""r8"">2923095</Frequency><Timestamp dt:dt=""r8"">15953492135</Timestamp><Current dt:dt=""r8"">0</Current><DateUtc dt:dt=""string"">2017-06-26T18:32:02Z</DateUtc></FrequencyChange></FrequencyChanges></Clock>\n",60.004,1,-1225805330,06-26-2017,13:32:02,6:32:02 PM,7,A180716_2T.wav,The NEW ROAD is on the MAP.   ,2Talker,TypeSPINProc,StimList,you{SPACE}road{SPACE}they{SPACE}are{SPACE}not{ESCAPE},15145,163945,16,1,7
SPIN,2003,1,"<?xml version=""1.0""?>\n<Clock xmlns:dt=""urn:schemas-microsoft-com:datatypes""><Description dt:dt=""string"">E-Prime Primary Realtime Clock</Description><StartTime><Timestamp dt:dt=""int"">0</Timestamp><DateUtc dt:dt=""string"">2017-06-26T18:32:02Z</DateUtc></StartTime><FrequencyChanges><FrequencyChange><Frequency dt:dt=""r8"">2923095</Frequency><Timestamp dt:dt=""r8"">15953492135</Timestamp><Current dt:dt=""r8"">0</Current><DateUtc dt:dt=""string"">2017-06-26T18:32:02Z</DateUtc></FrequencyChange></FrequencyChanges></Clock>\n",60.004,1,-1225805330,06-26-2017,13:32:02,6:32:02 PM,8,A181501_1T.wav,A MAN is TURNING the FAUCET.   ,1T,TypeSPINProc,StimList,birds{SPACE}do{SPACE}not{SPACE}forest{ESCAPE},23397,189312,49,1,8
SPIN,2003,1,"<?xml version=""1.0""?>\n<Clock xmlns:dt=""urn:schemas-microsoft-com:datatypes""><Description dt:dt=""string"">E-Prime Primary Realtime Clock</Description><StartTime><Timestamp dt:dt=""int"">0</Timestamp><DateUtc dt:dt=""string"">2017-06-26T18:32:02Z</DateUtc></StartTime><FrequencyChanges><FrequencyChange><Frequency dt:dt=""r8"">2923095</Frequency><Timestamp dt:dt=""r8"">15953492135</Timestamp><Current dt:dt=""r8"">0</Current><DateUtc dt:dt=""string"">2017-06-26T18:32:02Z</DateUtc></FrequencyChange></FrequencyChanges></Clock>\n",60.004,1,-1225805330,06-26-2017,13:32:02,6:32:02 PM,9,A180701_2T.wav,The CHILDREN DROPPED the BAG,2Talker,TypeSPINProc,StimList,the{SPACE}children{SPACE}drop{SPACE}the{SPACE}bag{ESCAPE},11944,202591,1,1,9
SPIN,2003,1,"<?xml version=""1.0""?>\n<Clock xmlns:dt=""urn:schemas-microsoft-com:datatypes""><Description dt:dt=""string"">E-Prime Primary Realtime Clock</Description><StartTime><Timestamp dt:dt=""int"">0</Timestamp><DateUtc dt:dt=""string"">2017-06-26T18:32:02Z</DateUtc></StartTime><FrequencyChanges><FrequencyChange><Frequency dt:dt=""r8"">2923095</Frequency><Timestamp dt:dt=""r8"">15953492135</Timestamp><Current dt:dt=""r8"">0</Current><DateUtc dt:dt=""string"">2017-06-26T18:32:02Z</DateUtc></FrequencyChange></FrequencyChanges></Clock>\n",60.004,1,-1225805330,06-26-2017,13:32:02,6:32:02 PM,10,A181015_SSN.wav,The BUCKETS HOLD WATER.   ,SSN,TypeSPINProc,StimList,bugdets{ESCAPE},12449,219062,47,1,10
SPIN,2003,1,"<?xml version=""1.0""?>\n<Clock xmlns:dt=""urn:schemas-microsoft-com:datatypes""><Description dt:dt=""string"">E-Prime Primary Realtime Clock</Description><StartTime><Timestamp dt:dt=""int"">0</Timestamp><DateUtc dt:dt=""string"">2017-06-26T18:32:02Z</DateUtc></StartTime><FrequencyChanges><FrequencyChange><Frequency dt:dt=""r8"">2923095</Frequency><Timestamp dt:dt=""r8"">15953492135</Timestamp><Current dt:dt=""r8"">0</Current><DateUtc dt:dt=""string"">2017-06-26T18:32:02Z</DateUtc></FrequencyChange></FrequencyChanges></Clock>\n",60.004,1,-1225805330,06-26-2017,13:32:02,6:32:02 PM,11,A181505_1T.wav,The DRIVER STARTED the ENGINE.   ,1T,TypeSPINProc,StimList,people{SPACE}wear{SPACE}shoes{SPACE}to{SPACE}start{SPACE}engine{SPACE}{ESCAPE},16969,237381,53,1,11
SPIN,2003,1,"<?xml version=""1.0""?>\n<Clock xmlns:dt=""urn:schemas-microsoft-com:datatypes""><Description dt:dt=""string"">E-Prime Primary Realtime Clock</Description><StartTime><Timestamp dt:dt=""int"">0</Timestamp><DateUtc dt:dt=""string"">2017-06-26T18:32:02Z</DateUtc></StartTime><FrequencyChanges><FrequencyChange><Frequency dt:dt=""r8"">2923095</Frequency><Timestamp dt:dt=""r8"">15953492135</Timestamp><Current dt:dt=""r8"">0</Current><DateUtc dt:dt=""string"">2017-06-26T18:32:02Z</DateUtc></FrequencyChange></FrequencyChanges></Clock>\n",60.004,1,-1225805330,06-26-2017,13:32:02,6:32:02 PM,12,A181516_1T.wav,The PUPPY PLAYS with a BALL.   ,1T,TypeSPINProc,StimList,the{SPACE}warplane{SPACE}drops{SPACE}the{SPACE}bomb{SPACE}{ESCAPE},12123,250700,64,1,12
SPIN,2003,1,"<?xml version=""1.0""?>\n<Clock xmlns:dt=""urn:schemas-microsoft-com:datatypes""><Description dt:dt=""string"">E-Prime Primary Realtime Clock</Description><StartTime><Timestamp dt:dt=""int"">0</Timestamp><DateUtc dt:dt=""string"">2017-06-26T18:32:02Z</DateUtc></StartTime><FrequencyChanges><FrequencyChange><Frequency dt:dt=""r8"">2923095</Frequency><Timestamp dt:dt=""r8"">15953492135</Timestamp><Current dt:dt=""r8"">0</Current><DateUtc dt:dt=""string"">2017-06-26T18:32:02Z</DateUtc></FrequencyChange></FrequencyChanges></Clock>\n",60.004,1,-1225805330,06-26-2017,13:32:02,6:32:02 PM,13,A180909_8T.wav,The DISHCLOTH is VERY WET.  ,8Talker,TypeSPINProc,StimList,dishwashers{SPACE}{ESCAPE},10253,261563,25,1,13
SPIN,2003,1,"<?xml version=""1.0""?>\n<Clock xmlns:dt=""urn:schemas-microsoft-com:datatypes""><Description dt:dt=""string"">E-Prime Primary Realtime Clock</Description><StartTime><Timestamp dt:dt=""int"">0</Timestamp><DateUtc dt:dt=""string"">2017-06-26T18:32:02Z</DateUtc></StartTime><FrequencyChanges><FrequencyChange><Frequency dt:dt=""r8"">2923095</Frequency><Timestamp dt:dt=""r8"">15953492135</Timestamp><Current dt:dt=""r8"">0</Current><DateUtc dt:dt=""string"">2017-06-26T18:32:02Z</DateUtc></FrequencyChange></FrequencyChanges></Clock>\n",60.004,1,-1225805330,06-26-2017,13:32:02,6:32:02 PM,14,A181011_SSN.wav,HE BROKE his LEG.   ,SSN,TypeSPINProc,StimList,{SHIFT}X{ENTER}{ESCAPE},5355,267931,43,1,14
SPIN,2003,1,"<?xml version=""1.0""?>\n<Clock xmlns:dt=""urn:schemas-microsoft-com:datatypes""><Description dt:dt=""string"">E-Prime Primary Realtime Clock</Description><StartTime><Timestamp dt:dt=""int"">0</Timestamp><DateUtc dt:dt=""string"">2017-06-26T18:32:02Z</DateUtc></StartTime><FrequencyChanges><FrequencyChange><Frequency dt:dt=""r8"">2923095</Frequency><Timestamp dt:dt=""r8"">15953492135</Timestamp><Current dt:dt=""r8"">0</Current><DateUtc dt:dt=""string"">2017-06-26T18:32:02Z</DateUtc></FrequencyChange></FrequencyChanges></Clock>\n",60.004,1,-1225805330,06-26-2017,13:32:02,6:32:02 PM,15,A181513_1T.wav,THEY WALKED ACROSS the GRASS.   ,1T,TypeSPINProc,StimList,is{SPACE}5{SPACE}cents{SPACE}where{SPACE}my{SPACE}hats{SPACE}{ESCAPE},23700,292426,61,1,15
SPIN,2003,1,"<?xml version=""1.0""?>\n<Clock xmlns:dt=""urn:schemas-microsoft-com:datatypes""><Description dt:dt=""string"">E-Prime Primary Realtime Clock</Description><StartTime><Timestamp dt:dt=""int"">0</Timestamp><DateUtc dt:dt=""string"">2017-06-26T18:32:02Z</DateUtc></StartTime><FrequencyChanges><FrequencyChange><Frequency dt:dt=""r8"">2923095</Frequency><Timestamp dt:dt=""r8"">15953492135</Timestamp><Current dt:dt=""r8"">0</Current><DateUtc dt:dt=""string"">2017-06-26T18:32:02Z</DateUtc></FrequencyChange></FrequencyChanges></Clock>\n",60.004,1,-1225805330,06-26-2017,13:32:02,6:32:02 PM,16,A180916_8T.wav,The CAR HIT a WALL.   ,SSN,TypeSPINProc,StimList,car{SPACE}{ESCAPE},12099,305457,32,1,16
SPIN,2003,1,"<?xml version=""1.0""?>\n<Clock xmlns:dt=""urn:schemas-microsoft-com:datatypes""><Description dt:dt=""string"">E-Prime Primary Realtime Clock</Description><StartTime><Timestamp dt:dt=""int"">0</Timestamp><DateUtc dt:dt=""string"">2017-06-26T18:32:02Z</DateUtc></StartTime><FrequencyChanges><FrequencyChange><Frequency dt:dt=""r8"">2923095</Frequency><Timestamp dt:dt=""r8"">15953492135</Timestamp><Current dt:dt=""r8"">0</Current><DateUtc dt:dt=""string"">2017-06-26T18:32:02Z</DateUtc></FrequencyChange></FrequencyChanges></Clock>\n",60.004,1,-1225805330,06-26-2017,13:32:02,6:32:02 PM,17,A180703_2T.wav,The FLOOR LOOKED CLEAN. ,2Talker,TypeSPINProc,StimList,people{SPACE}wear{SPACE}shoes{SPACE}to{SPACE}look{SPACE}clean{ESCAPE},18120,324360,3,1,17
SPIN,2003,1,"<?xml version=""1.0""?>\n<Clock xmlns:dt=""urn:schemas-microsoft-com:datatypes""><Description dt:dt=""string"">E-Prime Primary Realtime Clock</Description><StartTime><Timestamp dt:dt=""int"">0</Timestamp><DateUtc dt:dt=""string"">2017-06-26T18:32:02Z</DateUtc></StartTime><FrequencyChanges><FrequencyChange><Frequency dt:dt=""r8"">2923095</Frequency><Timestamp dt:dt=""r8"">15953492135</Timestamp><Current dt:dt=""r8"">0</Current><DateUtc dt:dt=""string"">2017-06-26T18:32:02Z</DateUtc></FrequencyChange></FrequencyChanges></Clock>\n",60.004,1,-1225805330,06-26-2017,13:32:02,6:32:02 PM,18,A181510_1T.wav,The RAINCOAT is HANGING UP.  ,1T,TypeSPINProc,StimList,green{SPACE}on{SPACE}day{SPACE}is{SPACE}the{SPACE}first{ENTER}{ESCAPE},12926,343815,58,1,18
SPIN,2003,1,"<?xml version=""1.0""?>\n<Clock xmlns:dt=""urn:schemas-microsoft-com:datatypes""><Description dt:dt=""string"">E-Prime Primary Realtime Clock</Description><StartTime><Timestamp dt:dt=""int"">0</Timestamp><DateUtc dt:dt=""string"">2017-06-26T18:32:02Z</DateUtc></StartTime><FrequencyChanges><FrequencyChange><Frequency dt:dt=""r8"">2923095</Frequency><Timestamp dt:dt=""r8"">15953492135</Timestamp><Current dt:dt=""r8"">0</Current><DateUtc dt:dt=""string"">2017-06-26T18:32:02Z</DateUtc></FrequencyChange></FrequencyChanges></Clock>\n",60.004,1,-1225805330,06-26-2017,13:32:02,6:32:02 PM,19,A180907_8T.wav,The FIVE MEN are WORKING.    ,8Talker,TypeSPINProc,StimList,{SHIFT}X{ESCAPE},4957,350462,23,1,19
SPIN,2003,1,"<?xml version=""1.0""?>\n<Clock xmlns:dt=""urn:schemas-microsoft-com:datatypes""><Description dt:dt=""string"">E-Prime Primary Realtime Clock</Description><StartTime><Timestamp dt:dt=""int"">0</Timestamp><DateUtc dt:dt=""string"">2017-06-26T18:32:02Z</DateUtc></StartTime><FrequencyChanges><FrequencyChange><Frequency dt:dt=""r8"">2923095</Frequency><Timestamp dt:dt=""r8"">15953492135</Timestamp><Current dt:dt=""r8"">0</Current><DateUtc dt:dt=""string"">2017-06-26T18:32:02Z</DateUtc></FrequencyChange></FrequencyChanges></Clock>\n",60.004,1,-1225805330,06-26-2017,13:32:02,6:32:02 PM,20,A180908_8T.wav,HE LISTENED TO his FATHER.   ,SSN,TypeSPINProc,StimList,you{SPACE}listen{SPACE}to{SPACE}{SHIFT}Mr{.}{SHIFT}Bob{ESCAPE},14880,366117,24,1,20
SPIN,2003,1,"<?xml version=""1.0""?>\n<Clock xmlns:dt=""urn:schemas-microsoft-com:datatypes""><Description dt:dt=""string"">E-Prime Primary Realtime Clock</Description><StartTime><Timestamp dt:dt=""int"">0</Timestamp><DateUtc dt:dt=""string"">2017-06-26T18:32:02Z</DateUtc></StartTime><FrequencyChanges><FrequencyChange><Frequency dt:dt=""r8"">2923095</Frequency><Timestamp dt:dt=""r8"">15953492135</Timestamp><Current dt:dt=""r8"">0</Current><DateUtc dt:dt=""string"">2017-06-26T18:32:02Z</DateUtc></FrequencyChange></FrequencyChanges></Clock>\n",60.004,1,-1225805330,06-26-2017,13:32:02,6:32:02 PM,21,A180704_2T.wav,SHE FOUND her PURSE.,2Talker,TypeSPINProc,StimList,{SHIFT}My{SPACE}hat{SPACE}find{SPACE}her{SPACE}in{SPACE}spring{SPACE}{ESCAPE},14826,383412,4,1,21
SPIN,2003,1,"<?xml version=""1.0""?>\n<Clock xmlns:dt=""urn:schemas-microsoft-com:datatypes""><Description dt:dt=""string"">E-Prime Primary Realtime Clock</Description><StartTime><Timestamp dt:dt=""int"">0</Timestamp><DateUtc dt:dt=""string"">2017-06-26T18:32:02Z</DateUtc></StartTime><FrequencyChanges><FrequencyChange><Frequency dt:dt=""r8"">2923095</Frequency><Timestamp dt:dt=""r8"">15953492135</Timestamp><Current dt:dt=""r8"">0</Current><DateUtc dt:dt=""string"">2017-06-26T18:32:02Z</DateUtc></FrequencyChange></FrequencyChanges></Clock>\n",60.004,1,-1225805330,06-26-2017,13:32:02,6:32:02 PM,22,A180713_2T.wav,The GIRL has a PICTURE BOOK.   ,2Talker,TypeSPINProc,StimList,the{SPACE}girl{SPACE}had{SPACE}a{SPACE}picture{SPACE}{ESCAPE},9037,392772,13,1,22
SPIN,2003,1,"<?xml version=""1.0""?>\n<Clock xmlns:dt=""urn:schemas-microsoft-com:datatypes""><Description dt:dt=""string"">E-Prime Primary Realtime Clock</Description><StartTime><Timestamp dt:dt=""int"">0</Timestamp><DateUtc dt:dt=""string"">2017-06-26T18:32:02Z</DateUtc></StartTime><FrequencyChanges><FrequencyChange><Frequency dt:dt=""r8"">2923095</Frequency><Timestamp dt:dt=""r8"">15953492135</Timestamp><Current dt:dt=""r8"">0</Current><DateUtc dt:dt=""string"">2017-06-26T18:32:02Z</DateUtc></FrequencyChange></FrequencyChanges></Clock>\n",60.004,1,-1225805330,06-26-2017,13:32:02,6:32:02 PM,23,A181512_1T.wav,The DAUGHTER SET the TABLE.   ,1T,TypeSPINProc,StimList,{SHIFT}He{SPACE}had{SPACE}occuped{SPACE}the{SPACE}rainforest{SPACE}{ESCAPE},21330,414882,60,1,23
SPIN,2003,1,"<?xml version=""1.0""?>\n<Clock xmlns:dt=""urn:schemas-microsoft-com:datatypes""><Description dt:dt=""string"">E-Prime Primary Realtime Clock</Description><StartTime><Timestamp dt:dt=""int"">0</Timestamp><DateUtc dt:dt=""string"">2017-06-26T18:32:02Z</DateUtc></StartTime><FrequencyChanges><FrequencyChange><Frequency dt:dt=""r8"">2923095</Frequency><Timestamp dt:dt=""r8"">15953492135</Timestamp><Current dt:dt=""r8"">0</Current><DateUtc dt:dt=""string"">2017-06-26T18:32:02Z</DateUtc></FrequencyChange></FrequencyChanges></Clock>\n",60.004,1,-1225805330,06-26-2017,13:32:02,6:32:02 PM,24,A180910_8T.wav,THEY WENT on a VACATION.   ,SSN,TypeSPINProc,StimList,{SHIFT}They{SPACE}went{SPACE}down{SPACE}{ESCAPE},9375,428042,26,1,24
SPIN,2003,1,"<?xml version=""1.0""?>\n<Clock xmlns:dt=""urn:schemas-microsoft-com:datatypes""><Description dt:dt=""string"">E-Prime Primary Realtime Clock</Description><StartTime><Timestamp dt:dt=""int"">0</Timestamp><DateUtc dt:dt=""string"">2017-06-26T18:32:02Z</DateUtc></StartTime><FrequencyChanges><FrequencyChange><Frequency dt:dt=""r8"">2923095</Frequency><Timestamp dt:dt=""r8"">15953492135</Timestamp><Current dt:dt=""r8"">0</Current><DateUtc dt:dt=""string"">2017-06-26T18:32:02Z</DateUtc></FrequencyChange></FrequencyChanges></Clock>\n",60.004,1,-1225805330,06-26-2017,13:32:02,6:32:02 PM,25,A180904_8T.wav,SHE STOOD near her WINDOW.   ,8Talker,TypeSPINProc,StimList,{SHIFT}X{SPACE}{ESCAPE},6049,442281,20,1,25
SPIN,2003,1,"<?xml version=""1.0""?>\n<Clock xmlns:dt=""urn:schemas-microsoft-com:datatypes""><Description dt:dt=""string"">E-Prime Primary Realtime Clock</Description><StartTime><Timestamp dt:dt=""int"">0</Timestamp><DateUtc dt:dt=""string"">2017-06-26T18:32:02Z</DateUtc></StartTime><FrequencyChanges><FrequencyChange><Frequency dt:dt=""r8"">2923095</Frequency><Timestamp dt:dt=""r8"">15953492135</Timestamp><Current dt:dt=""r8"">0</Current><DateUtc dt:dt=""string"">2017-06-26T18:32:02Z</DateUtc></FrequencyChange></FrequencyChanges></Clock>\n",60.004,1,-1225805330,06-26-2017,13:32:02,6:32:02 PM,26,A181509_1T.wav,THEY MET SOME FRIENDS.   ,1T,TypeSPINProc,StimList,"{SHIFT}His{SPACE}mother{SPACE}and{SPACE}father{,}{SPACE}he{SPACE}made{SPACE}it{SPACE}{ESCAPE}",14603,457568,57,1,26
SPIN,2003,1,"<?xml version=""1.0""?>\n<Clock xmlns:dt=""urn:schemas-microsoft-com:datatypes""><Description dt:dt=""string"">E-Prime Primary Realtime Clock</Description><StartTime><Timestamp dt:dt=""int"">0</Timestamp><DateUtc dt:dt=""string"">2017-06-26T18:32:02Z</DateUtc></StartTime><FrequencyChanges><FrequencyChange><Frequency dt:dt=""r8"">2923095</Frequency><Timestamp dt:dt=""r8"">15953492135</Timestamp><Current dt:dt=""r8"">0</Current><DateUtc dt:dt=""string"">2017-06-26T18:32:02Z</DateUtc></FrequencyChange></FrequencyChanges></Clock>\n",60.004,1,-1225805330,06-26-2017,13:32:02,6:32:02 PM,27,A181010_SSN.wav,THEY are RIDING their BICYCLES.   ,SSN,TypeSPINProc,StimList,{SHIFT}They{SPACE}are{SPACE}riding{SPACE}the{SPACE}bicycles{SPACE}{ESCAPE},15143,474391,42,1,27
SPIN,2003,1,"<?xml version=""1.0""?>\n<Clock xmlns:dt=""urn:schemas-microsoft-com:datatypes""><Description dt:dt=""string"">E-Prime Primary Realtime Clock</Description><StartTime><Timestamp dt:dt=""int"">0</Timestamp><DateUtc dt:dt=""string"">2017-06-26T18:32:02Z</DateUtc></StartTime><FrequencyChanges><FrequencyChange><Frequency dt:dt=""r8"">2923095</Frequency><Timestamp dt:dt=""r8"">15953492135</Timestamp><Current dt:dt=""r8"">0</Current><DateUtc dt:dt=""string"">2017-06-26T18:32:02Z</DateUtc></FrequencyChange></FrequencyChanges></Clock>\n",60.004,1,-1225805330,06-26-2017,13:32:02,6:32:02 PM,28,A180915_8T.wav,The CHILD DRANK some MILK.   ,SSN,TypeSPINProc,StimList,{CONTROL}the{SPACE}child{SPACE}took{SPACE}{ENTER}{ESCAPE},17907,493270,31,1,28
SPIN,2003,1,"<?xml version=""1.0""?>\n<Clock xmlns:dt=""urn:schemas-microsoft-com:datatypes""><Description dt:dt=""string"">E-Prime Primary Realtime Clock</Description><StartTime><Timestamp dt:dt=""int"">0</Timestamp><DateUtc dt:dt=""string"">2017-06-26T18:32:02Z</DateUtc></StartTime><FrequencyChanges><FrequencyChange><Frequency dt:dt=""r8"">2923095</Frequency><Timestamp dt:dt=""r8"">15953492135</Timestamp><Current dt:dt=""r8"">0</Current><DateUtc dt:dt=""string"">2017-06-26T18:32:02Z</DateUtc></FrequencyChange></FrequencyChanges></Clock>\n",60.004,1,-1225805330,06-26-2017,13:32:02,6:32:02 PM,29,A180708_2T.wav,The YOUNG PEOPLE are DANCING.,2Talker,TypeSPINProc,StimList,{SHIFT}have{SPACE}you{SPACE}ever{SPACE}{ESCAPE},12405,507901,8,1,29
SPIN,2003,1,"<?xml version=""1.0""?>\n<Clock xmlns:dt=""urn:schemas-microsoft-com:datatypes""><Description dt:dt=""string"">E-Prime Primary Realtime Clock</Description><StartTime><Timestamp dt:dt=""int"">0</Timestamp><DateUtc dt:dt=""string"">2017-06-26T18:32:02Z</DateUtc></StartTime><FrequencyChanges><FrequencyChange><Frequency dt:dt=""r8"">2923095</Frequency><Timestamp dt:dt=""r8"">15953492135</Timestamp><Current dt:dt=""r8"">0</Current><DateUtc dt:dt=""string"">2017-06-26T18:32:02Z</DateUtc></FrequencyChange></FrequencyChanges></Clock>\n",60.004,1,-1225805330,06-26-2017,13:32:02,6:32:02 PM,30,A181507_1T.wav,Some NICE PEOPLE are COMING.   ,1T,TypeSPINProc,StimList,has{SPACE}20{SPACE}days{SPACE}at{SPACE}breakfast{SPACE}{ESCAPE},20789,532867,55,1,30
SPIN,2003,1,"<?xml version=""1.0""?>\n<Clock xmlns:dt=""urn:schemas-microsoft-com:datatypes""><Description dt:dt=""string"">E-Prime Primary Realtime Clock</Description><StartTime><Timestamp dt:dt=""int"">0</Timestamp><DateUtc dt:dt=""string"">2017-06-26T18:32:02Z</DateUtc></StartTime><FrequencyChanges><FrequencyChange><Frequency dt:dt=""r8"">2923095</Frequency><Timestamp dt:dt=""r8"">15953492135</Timestamp><Current dt:dt=""r8"">0</Current><DateUtc dt:dt=""string"">2017-06-26T18:32:02Z</DateUtc></FrequencyChange></FrequencyChanges></Clock>\n",60.004,1,-1225805330,06-26-2017,13:32:02,6:32:02 PM,31,A181006_SSN.wav,The KITCHEN CLOCK was WRONG.   ,SSN,TypeSPINProc,StimList,kicthen{SPACE}clock{SPACE}is{SPACE}wrong{SPACE}{ESCAPE},17931,554874,38,1,31
SPIN,2003,1,"<?xml version=""1.0""?>\n<Clock xmlns:dt=""urn:schemas-microsoft-com:datatypes""><Description dt:dt=""string"">E-Prime Primary Realtime Clock</Description><StartTime><Timestamp dt:dt=""int"">0</Timestamp><DateUtc dt:dt=""string"">2017-06-26T18:32:02Z</DateUtc></StartTime><FrequencyChanges><FrequencyChange><Frequency dt:dt=""r8"">2923095</Frequency><Timestamp dt:dt=""r8"">15953492135</Timestamp><Current dt:dt=""r8"">0</Current><DateUtc dt:dt=""string"">2017-06-26T18:32:02Z</DateUtc></FrequencyChange></FrequencyChanges></Clock>\n",60.004,1,-1225805330,06-26-2017,13:32:02,6:32:02 PM,32,A180706_2T.wav,MOTHER GOT a SAUCEPAN.,2Talker,TypeSPINProc,StimList,mother{SPACE}face{SPACE}is{SPACE}pale{SPACE}{ESCAPE},10977,566769,6,1,32
SPIN,2003,1,"<?xml version=""1.0""?>\n<Clock xmlns:dt=""urn:schemas-microsoft-com:datatypes""><Description dt:dt=""string"">E-Prime Primary Realtime Clock</Description><StartTime><Timestamp dt:dt=""int"">0</Timestamp><DateUtc dt:dt=""string"">2017-06-26T18:32:02Z</DateUtc></StartTime><FrequencyChanges><FrequencyChange><Frequency dt:dt=""r8"">2923095</Frequency><Timestamp dt:dt=""r8"">15953492135</Timestamp><Current dt:dt=""r8"">0</Current><DateUtc dt:dt=""string"">2017-06-26T18:32:02Z</DateUtc></FrequencyChange></FrequencyChanges></Clock>\n",60.004,1,-1225805330,06-26-2017,13:32:02,6:32:02 PM,33,A181013_SSN.wav,The SHIRTS are HANGING in the CLOSET.   ,SSN,TypeSPINProc,StimList,the{SPACE}shirts{SPACE}are{SPACE}hanging{SPACE}in{SPACE}the{SPACE}closets{SPACE}{ESCAPE},27691,595832,45,1,33
SPIN,2003,1,"<?xml version=""1.0""?>\n<Clock xmlns:dt=""urn:schemas-microsoft-com:datatypes""><Description dt:dt=""string"">E-Prime Primary Realtime Clock</Description><StartTime><Timestamp dt:dt=""int"">0</Timestamp><DateUtc dt:dt=""string"">2017-06-26T18:32:02Z</DateUtc></StartTime><FrequencyChanges><FrequencyChange><Frequency dt:dt=""r8"">2923095</Frequency><Timestamp dt:dt=""r8"">15953492135</Timestamp><Current dt:dt=""r8"">0</Current><DateUtc dt:dt=""string"">2017-06-26T18:32:02Z</DateUtc></FrequencyChange></FrequencyChanges></Clock>\n",60.004,1,-1225805330,06-26-2017,13:32:02,6:32:02 PM,34,A180711_2T.wav,The BALL is BOUNCING very HIGH.   ,2Talker,TypeSPINProc,StimList,orange{SPACE}{ESCAPE},7243,603583,11,1,34
SPIN,2003,1,"<?xml version=""1.0""?>\n<Clock xmlns:dt=""urn:schemas-microsoft-com:datatypes""><Description dt:dt=""string"">E-Prime Primary Realtime Clock</Description><StartTime><Timestamp dt:dt=""int"">0</Timestamp><DateUtc dt:dt=""string"">2017-06-26T18:32:02Z</DateUtc></StartTime><FrequencyChanges><FrequencyChange><Frequency dt:dt=""r8"">2923095</Frequency><Timestamp dt:dt=""r8"">15953492135</Timestamp><Current dt:dt=""r8"">0</Current><DateUtc dt:dt=""string"">2017-06-26T18:32:02Z</DateUtc></FrequencyChange></FrequencyChanges></Clock>\n",60.004,1,-1225805330,06-26-2017,13:32:02,6:32:02 PM,35,A181014_SSN.wav,The GROUND was VERY HARD.   ,SSN,TypeSPINProc,StimList,the{SPACE}ground{SPACE}is{SPACE}very{SPACE}hard{SPACE}{ESCAPE},9898,613887,46,1,35
SPIN,2003,1,"<?xml version=""1.0""?>\n<Clock xmlns:dt=""urn:schemas-microsoft-com:datatypes""><Description dt:dt=""string"">E-Prime Primary Realtime Clock</Description><StartTime><Timestamp dt:dt=""int"">0</Timestamp><DateUtc dt:dt=""string"">2017-06-26T18:32:02Z</DateUtc></StartTime><FrequencyChanges><FrequencyChange><Frequency dt:dt=""r8"">2923095</Frequency><Timestamp dt:dt=""r8"">15953492135</Timestamp><Current dt:dt=""r8"">0</Current><DateUtc dt:dt=""string"">2017-06-26T18:32:02Z</DateUtc></FrequencyChange></FrequencyChanges></Clock>\n",60.004,1,-1225805330,06-26-2017,13:32:02,6:32:02 PM,36,A181005_SSN.wav,THEY FOLLOWED the PATH.   ,SSN,TypeSPINProc,StimList,they{SPACE}followed{SPACE}the{SPACE}path{ESCAPE},15456,630278,37,1,36
SPIN,2003,1,"<?xml version=""1.0""?>\n<Clock xmlns:dt=""urn:schemas-microsoft-com:datatypes""><Description dt:dt=""string"">E-Prime Primary Realtime Clock</Description><StartTime><Timestamp dt:dt=""int"">0</Timestamp><DateUtc dt:dt=""string"">2017-06-26T18:32:02Z</DateUtc></StartTime><FrequencyChanges><FrequencyChange><Frequency dt:dt=""r8"">2923095</Frequency><Timestamp dt:dt=""r8"">15953492135</Timestamp><Current dt:dt=""r8"">0</Current><DateUtc dt:dt=""string"">2017-06-26T18:32:02Z</DateUtc></FrequencyChange></FrequencyChanges></Clock>\n",60.004,1,-1225805330,06-26-2017,13:32:02,6:32:02 PM,37,A181007_SSN.wav,The DOG JUMPED ON the CHAIR.   ,SSN,TypeSPINProc,StimList,the{SPACE}{LEFTARROW}dog{SPACE}jumped{SPACE}on{SPACE}the{SPACE}chair{SPACE}{ESCAPE},21545,653132,39,1,37
SPIN,2003,1,"<?xml version=""1.0""?>\n<Clock xmlns:dt=""urn:schemas-microsoft-com:datatypes""><Description dt:dt=""string"">E-Prime Primary Realtime Clock</Description><StartTime><Timestamp dt:dt=""int"">0</Timestamp><DateUtc dt:dt=""string"">2017-06-26T18:32:02Z</DateUtc></StartTime><FrequencyChanges><FrequencyChange><Frequency dt:dt=""r8"">2923095</Frequency><Timestamp dt:dt=""r8"">15953492135</Timestamp><Current dt:dt=""r8"">0</Current><DateUtc dt:dt=""string"">2017-06-26T18:32:02Z</DateUtc></FrequencyChange></FrequencyChanges></Clock>\n",60.004,1,-1225805330,06-26-2017,13:32:02,6:32:02 PM,38,A180902_8T.wav,The YOUNG BOY LEFT HOME.   ,8Talker,TypeSPINProc,StimList,{SHIFT}X{ESCAPE},7106,661692,18,1,38
SPIN,2003,1,"<?xml version=""1.0""?>\n<Clock xmlns:dt=""urn:schemas-microsoft-com:datatypes""><Description dt:dt=""string"">E-Prime Primary Realtime Clock</Description><StartTime><Timestamp dt:dt=""int"">0</Timestamp><DateUtc dt:dt=""string"">2017-06-26T18:32:02Z</DateUtc></StartTime><FrequencyChanges><FrequencyChange><Frequency dt:dt=""r8"">2923095</Frequency><Timestamp dt:dt=""r8"">15953492135</Timestamp><Current dt:dt=""r8"">0</Current><DateUtc dt:dt=""string"">2017-06-26T18:32:02Z</DateUtc></FrequencyChange></FrequencyChanges></Clock>\n",60.004,1,-1225805330,06-26-2017,13:32:02,6:32:02 PM,39,A181012_SSN.wav,The MILK was by the FRONT DOOR.   ,SSN,TypeSPINProc,StimList,the{SPACE}milk{SPACE}is{SPACE}at{SPACE}your{SPACE}front{SPACE}door{ESCAPE},18009,680211,44,1,39
SPIN,2003,1,"<?xml version=""1.0""?>\n<Clock xmlns:dt=""urn:schemas-microsoft-com:datatypes""><Description dt:dt=""string"">E-Prime Primary Realtime Clock</Description><StartTime><Timestamp dt:dt=""int"">0</Timestamp><DateUtc dt:dt=""string"">2017-06-26T18:32:02Z</DateUtc></StartTime><FrequencyChanges><FrequencyChange><Frequency dt:dt=""r8"">2923095</Frequency><Timestamp dt:dt=""r8"">15953492135</Timestamp><Current dt:dt=""r8"">0</Current><DateUtc dt:dt=""string"">2017-06-26T18:32:02Z</DateUtc></FrequencyChange></FrequencyChanges></Clock>\n",60.004,1,-1225805330,06-26-2017,13:32:02,6:32:02 PM,40,A180913_8T.wav,The DINNER PLATE is HOT.   ,SSN,TypeSPINProc,StimList,the{SPACE}diner{SPACE}plate{SPACE}is{SPACE}pasta{SPACE}{ESCAPE},22040,704641,29,1,40
SPIN,2003,1,"<?xml version=""1.0""?>\n<Clock xmlns:dt=""urn:schemas-microsoft-com:datatypes""><Description dt:dt=""string"">E-Prime Primary Realtime Clock</Description><StartTime><Timestamp dt:dt=""int"">0</Timestamp><DateUtc dt:dt=""string"">2017-06-26T18:32:02Z</DateUtc></StartTime><FrequencyChanges><FrequencyChange><Frequency dt:dt=""r8"">2923095</Frequency><Timestamp dt:dt=""r8"">15953492135</Timestamp><Current dt:dt=""r8"">0</Current><DateUtc dt:dt=""string"">2017-06-26T18:32:02Z</DateUtc></FrequencyChange></FrequencyChanges></Clock>\n",60.004,1,-1225805330,06-26-2017,13:32:02,6:32:02 PM,41,A181504_1T.wav,The SHOP CLOSED for LUNCH.   ,1T,TypeSPINProc,StimList,first{SPACE}he{SPACE}drinks{SPACE}the{SPACE}orange{SPACE}juice{ESCAPE},14986,720736,52,1,41
SPIN,2003,1,"<?xml version=""1.0""?>\n<Clock xmlns:dt=""urn:schemas-microsoft-com:datatypes""><Description dt:dt=""string"">E-Prime Primary Realtime Clock</Description><StartTime><Timestamp dt:dt=""int"">0</Timestamp><DateUtc dt:dt=""string"">2017-06-26T18:32:02Z</DateUtc></StartTime><FrequencyChanges><FrequencyChange><Frequency dt:dt=""r8"">2923095</Frequency><Timestamp dt:dt=""r8"">15953492135</Timestamp><Current dt:dt=""r8"">0</Current><DateUtc dt:dt=""string"">2017-06-26T18:32:02Z</DateUtc></FrequencyChange></FrequencyChanges></Clock>\n",60.004,1,-1225805330,06-26-2017,13:32:02,6:32:02 PM,42,A180911_8T.wav,The BABY BROKE his CUP.   ,8Talker,TypeSPINProc,StimList,{SHIFT}X{ESCAPE},4857,726256,27,1,42
SPIN,2003,1,"<?xml version=""1.0""?>\n<Clock xmlns:dt=""urn:schemas-microsoft-com:datatypes""><Description dt:dt=""string"">E-Prime Primary Realtime Clock</Description><StartTime><Timestamp dt:dt=""int"">0</Timestamp><DateUtc dt:dt=""string"">2017-06-26T18:32:02Z</DateUtc></StartTime><FrequencyChanges><FrequencyChange><Frequency dt:dt=""r8"">2923095</Frequency><Timestamp dt:dt=""r8"">15953492135</Timestamp><Current dt:dt=""r8"">0</Current><DateUtc dt:dt=""string"">2017-06-26T18:32:02Z</DateUtc></FrequencyChange></FrequencyChanges></Clock>\n",60.004,1,-1225805330,06-26-2017,13:32:02,6:32:02 PM,43,A181502_1T.wav,The OVEN is TOO HOT.,1T,TypeSPINProc,StimList,monday{SPACE}is{SPACE}the{SPACE}first{SPACE}day{SPACE}of{SPACE}a{SPACE}week{SPACE}{ESCAPE},22835,749550,50,1,43
SPIN,2003,1,"<?xml version=""1.0""?>\n<Clock xmlns:dt=""urn:schemas-microsoft-com:datatypes""><Description dt:dt=""string"">E-Prime Primary Realtime Clock</Description><StartTime><Timestamp dt:dt=""int"">0</Timestamp><DateUtc dt:dt=""string"">2017-06-26T18:32:02Z</DateUtc></StartTime><FrequencyChanges><FrequencyChange><Frequency dt:dt=""r8"">2923095</Frequency><Timestamp dt:dt=""r8"">15953492135</Timestamp><Current dt:dt=""r8"">0</Current><DateUtc dt:dt=""string"">2017-06-26T18:32:02Z</DateUtc></FrequencyChange></FrequencyChanges></Clock>\n",60.004,1,-1225805330,06-26-2017,13:32:02,6:32:02 PM,44,A181004_SSN.wav,The GOOD BOY is HELPING.   ,SSN,TypeSPINProc,StimList,the{SPACE}good{SPACE}boy{SPACE}helped{SPACE}him{SPACE}out{SPACE}{ESCAPE},12660,763774,36,1,44
SPIN,2003,1,"<?xml version=""1.0""?>\n<Clock xmlns:dt=""urn:schemas-microsoft-com:datatypes""><Description dt:dt=""string"">E-Prime Primary Realtime Clock</Description><StartTime><Timestamp dt:dt=""int"">0</Timestamp><DateUtc dt:dt=""string"">2017-06-26T18:32:02Z</DateUtc></StartTime><FrequencyChanges><FrequencyChange><Frequency dt:dt=""r8"">2923095</Frequency><Timestamp dt:dt=""r8"">15953492135</Timestamp><Current dt:dt=""r8"">0</Current><DateUtc dt:dt=""string"">2017-06-26T18:32:02Z</DateUtc></FrequencyChange></FrequencyChanges></Clock>\n",60.004,1,-1225805330,06-26-2017,13:32:02,6:32:02 PM,45,A181009_SSN.wav,The MAILMAN BROUGHT a LETTER.   ,SSN,TypeSPINProc,StimList,the{SPACE}mailman{SPACE}got{SPACE}a{SPACE}letter{SPACE}{ESCAPE},9362,773925,41,1,45
SPIN,2003,1,"<?xml version=""1.0""?>\n<Clock xmlns:dt=""urn:schemas-microsoft-com:datatypes""><Description dt:dt=""string"">E-Prime Primary Realtime Clock</Description><StartTime><Timestamp dt:dt=""int"">0</Timestamp><DateUtc dt:dt=""string"">2017-06-26T18:32:02Z</DateUtc></StartTime><FrequencyChanges><FrequencyChange><Frequency dt:dt=""r8"">2923095</Frequency><Timestamp dt:dt=""r8"">15953492135</Timestamp><Current dt:dt=""r8"">0</Current><DateUtc dt:dt=""string"">2017-06-26T18:32:02Z</DateUtc></FrequencyChange></FrequencyChanges></Clock>\n",60.004,1,-1225805330,06-26-2017,13:32:02,6:32:02 PM,46,A181001_SSN.wav,A DISH TOWEL is by the SINK.   ,SSN,TypeSPINProc,StimList,the{SPACE}dishtower{SPACE}is{SPACE}by{SPACE}the{SPACE}sink{ESCAPE},11122,785284,33,1,46
SPIN,2003,1,"<?xml version=""1.0""?>\n<Clock xmlns:dt=""urn:schemas-microsoft-com:datatypes""><Description dt:dt=""string"">E-Prime Primary Realtime Clock</Description><StartTime><Timestamp dt:dt=""int"">0</Timestamp><DateUtc dt:dt=""string"">2017-06-26T18:32:02Z</DateUtc></StartTime><FrequencyChanges><FrequencyChange><Frequency dt:dt=""r8"">2923095</Frequency><Timestamp dt:dt=""r8"">15953492135</Timestamp><Current dt:dt=""r8"">0</Current><DateUtc dt:dt=""string"">2017-06-26T18:32:02Z</DateUtc></FrequencyChange></FrequencyChanges></Clock>\n",60.004,1,-1225805330,06-26-2017,13:32:02,6:32:02 PM,47,A180715_2T.wav,HE is HOLDING his NOSE.   ,2Talker,TypeSPINProc,StimList,is{SPACE}yellow{SPACE}{ESCAPE},5961,791956,15,1,47
SPIN,2003,1,"<?xml version=""1.0""?>\n<Clock xmlns:dt=""urn:schemas-microsoft-com:datatypes""><Description dt:dt=""string"">E-Prime Primary Realtime Clock</Description><StartTime><Timestamp dt:dt=""int"">0</Timestamp><DateUtc dt:dt=""string"">2017-06-26T18:32:02Z</DateUtc></StartTime><FrequencyChanges><FrequencyChange><Frequency dt:dt=""r8"">2923095</Frequency><Timestamp dt:dt=""r8"">15953492135</Timestamp><Current dt:dt=""r8"">0</Current><DateUtc dt:dt=""string"">2017-06-26T18:32:02Z</DateUtc></FrequencyChange></FrequencyChanges></Clock>\n",60.004,1,-1225805330,06-26-2017,13:32:02,6:32:02 PM,48,A180901_8T.wav,The BOOK TELLS a STORY.   ,8Talker,TypeSPINProc,StimList,bookstore{SPACE}{ESCAPE},19487,813131,17,1,48
SPIN,2003,1,"<?xml version=""1.0""?>\n<Clock xmlns:dt=""urn:schemas-microsoft-com:datatypes""><Description dt:dt=""string"">E-Prime Primary Realtime Clock</Description><StartTime><Timestamp dt:dt=""int"">0</Timestamp><DateUtc dt:dt=""string"">2017-06-26T18:32:02Z</DateUtc></StartTime><FrequencyChanges><FrequencyChange><Frequency dt:dt=""r8"">2923095</Frequency><Timestamp dt:dt=""r8"">15953492135</Timestamp><Current dt:dt=""r8"">0</Current><DateUtc dt:dt=""string"">2017-06-26T18:32:02Z</DateUtc></FrequencyChange></FrequencyChanges></Clock>\n",60.004,1,-1225805330,06-26-2017,13:32:02,6:32:02 PM,49,A180914_8T.wav,The TRAIN is MOVING FAST.   ,SSN,TypeSPINProc,StimList,the{SPACE}train{SPACE}is{SPACE}fast{SPACE}{ESCAPE},11761,825754,30,1,49
SPIN,2003,1,"<?xml version=""1.0""?>\n<Clock xmlns:dt=""urn:schemas-microsoft-com:datatypes""><Description dt:dt=""string"">E-Prime Primary Realtime Clock</Description><StartTime><Timestamp dt:dt=""int"">0</Timestamp><DateUtc dt:dt=""string"">2017-06-26T18:32:02Z</DateUtc></StartTime><FrequencyChanges><FrequencyChange><Frequency dt:dt=""r8"">2923095</Frequency><Timestamp dt:dt=""r8"">15953492135</Timestamp><Current dt:dt=""r8"">0</Current><DateUtc dt:dt=""string"">2017-06-26T18:32:02Z</DateUtc></FrequencyChange></FrequencyChanges></Clock>\n",60.004,1,-1225805330,06-26-2017,13:32:02,6:32:02 PM,50,A181002_SSN.wav,The JANITOR USED a BROOM.   ,SSN,TypeSPINProc,StimList,the{SPACE}janitor{SPACE}is{SPACE}at{SPACE}the{SPACE}room{ESCAPE},9924,836817,34,1,50
SPIN,2003,1,"<?xml version=""1.0""?>\n<Clock xmlns:dt=""urn:schemas-microsoft-com:datatypes""><Description dt:dt=""string"">E-Prime Primary Realtime Clock</Description><StartTime><Timestamp dt:dt=""int"">0</Timestamp><DateUtc dt:dt=""string"">2017-06-26T18:32:02Z</DateUtc></StartTime><FrequencyChanges><FrequencyChange><Frequency dt:dt=""r8"">2923095</Frequency><Timestamp dt:dt=""r8"">15953492135</Timestamp><Current dt:dt=""r8"">0</Current><DateUtc dt:dt=""string"">2017-06-26T18:32:02Z</DateUtc></FrequencyChange></FrequencyChanges></Clock>\n",60.004,1,-1225805330,06-26-2017,13:32:02,6:32:02 PM,51,A180714_2T.wav,The ORANGE was VERY SWEET.   ,2Talker,TypeSPINProc,StimList,started{SPACE}a{SPACE}cup{SPACE}of{SPACE}coffce{SPACE}{ESCAPE},19161,857136,14,1,51
SPIN,2003,1,"<?xml version=""1.0""?>\n<Clock xmlns:dt=""urn:schemas-microsoft-com:datatypes""><Description dt:dt=""string"">E-Prime Primary Realtime Clock</Description><StartTime><Timestamp dt:dt=""int"">0</Timestamp><DateUtc dt:dt=""string"">2017-06-26T18:32:02Z</DateUtc></StartTime><FrequencyChanges><FrequencyChange><Frequency dt:dt=""r8"">2923095</Frequency><Timestamp dt:dt=""r8"">15953492135</Timestamp><Current dt:dt=""r8"">0</Current><DateUtc dt:dt=""string"">2017-06-26T18:32:02Z</DateUtc></FrequencyChange></FrequencyChanges></Clock>\n",60.004,1,-1225805330,06-26-2017,13:32:02,6:32:02 PM,52,A181016_SSN.wav,The CHICKEN LAID some EGGS.   ,SSN,TypeSPINProc,StimList,the{SPACE}chicken{SPACE}laid{SPACE}eggs{SPACE}{ESCAPE},15191,873215,48,1,52
SPIN,2003,1,"<?xml version=""1.0""?>\n<Clock xmlns:dt=""urn:schemas-microsoft-com:datatypes""><Description dt:dt=""string"">E-Prime Primary Realtime Clock</Description><StartTime><Timestamp dt:dt=""int"">0</Timestamp><DateUtc dt:dt=""string"">2017-06-26T18:32:02Z</DateUtc></StartTime><FrequencyChanges><FrequencyChange><Frequency dt:dt=""r8"">2923095</Frequency><Timestamp dt:dt=""r8"">15953492135</Timestamp><Current dt:dt=""r8"">0</Current><DateUtc dt:dt=""string"">2017-06-26T18:32:02Z</DateUtc></FrequencyChange></FrequencyChanges></Clock>\n",60.004,1,-1225805330,06-26-2017,13:32:02,6:32:02 PM,53,A181008_SSN.wav,SOMEONE is CROSSING the ROAD.   ,SSN,TypeSPINProc,StimList,someone{SPACE}is{SPACE}crossing{SPACE}the{SPACE}road{SPACE}{ESCAPE},9840,883830,40,1,53
SPIN,2003,1,"<?xml version=""1.0""?>\n<Clock xmlns:dt=""urn:schemas-microsoft-com:datatypes""><Description dt:dt=""string"">E-Prime Primary Realtime Clock</Description><StartTime><Timestamp dt:dt=""int"">0</Timestamp><DateUtc dt:dt=""string"">2017-06-26T18:32:02Z</DateUtc></StartTime><FrequencyChanges><FrequencyChange><Frequency dt:dt=""r8"">2923095</Frequency><Timestamp dt:dt=""r8"">15953492135</Timestamp><Current dt:dt=""r8"">0</Current><DateUtc dt:dt=""string"">2017-06-26T18:32:02Z</DateUtc></FrequencyChange></FrequencyChanges></Clock>\n",60.004,1,-1225805330,06-26-2017,13:32:02,6:32:02 PM,54,A180702_2T.wav,The DOG CAME BACK.   ,2Talker,TypeSPINProc,StimList,the{SPACE}war{LEFTBRACKET}plane{SPACE}droped{SPACE}{ESCAPE},16857,901829,2,1,54
SPIN,2003,1,"<?xml version=""1.0""?>\n<Clock xmlns:dt=""urn:schemas-microsoft-com:datatypes""><Description dt:dt=""string"">E-Prime Primary Realtime Clock</Description><StartTime><Timestamp dt:dt=""int"">0</Timestamp><DateUtc dt:dt=""string"">2017-06-26T18:32:02Z</DateUtc></StartTime><FrequencyChanges><FrequencyChange><Frequency dt:dt=""r8"">2923095</Frequency><Timestamp dt:dt=""r8"">15953492135</Timestamp><Current dt:dt=""r8"">0</Current><DateUtc dt:dt=""string"">2017-06-26T18:32:02Z</DateUtc></FrequencyChange></FrequencyChanges></Clock>\n",60.004,1,-1225805330,06-26-2017,13:32:02,6:32:02 PM,55,A180905_8T.wav,The TABLE has THREE LEGS.   ,SSN,TypeSPINProc,StimList,the{SPACE}table{SPACE}has{SPACE}three{SPACE}legs{SPACE}{ESCAPE},17661,922116,21,1,55
SPIN,2003,1,"<?xml version=""1.0""?>\n<Clock xmlns:dt=""urn:schemas-microsoft-com:datatypes""><Description dt:dt=""string"">E-Prime Primary Realtime Clock</Description><StartTime><Timestamp dt:dt=""int"">0</Timestamp><DateUtc dt:dt=""string"">2017-06-26T18:32:02Z</DateUtc></StartTime><FrequencyChanges><FrequencyChange><Frequency dt:dt=""r8"">2923095</Frequency><Timestamp dt:dt=""r8"">15953492135</Timestamp><Current dt:dt=""r8"">0</Current><DateUtc dt:dt=""string"">2017-06-26T18:32:02Z</DateUtc></FrequencyChange></FrequencyChanges></Clock>\n",60.004,1,-1225805330,06-26-2017,13:32:02,6:32:02 PM,56,A181506_1T.wav,The BOY HURRIED to SCHOOL.   ,1T,TypeSPINProc,StimList,the{SPACE}elephants{SPACE}are{SPACE}begging{SPACE}for{SPACE}deserts{SPACE}{ESCAPE},18312,941099,54,1,56
SPIN,2003,1,"<?xml version=""1.0""?>\n<Clock xmlns:dt=""urn:schemas-microsoft-com:datatypes""><Description dt:dt=""string"">E-Prime Primary Realtime Clock</Description><StartTime><Timestamp dt:dt=""int"">0</Timestamp><DateUtc dt:dt=""string"">2017-06-26T18:32:02Z</DateUtc></StartTime><FrequencyChanges><FrequencyChange><Frequency dt:dt=""r8"">2923095</Frequency><Timestamp dt:dt=""r8"">15953492135</Timestamp><Current dt:dt=""r8"">0</Current><DateUtc dt:dt=""string"">2017-06-26T18:32:02Z</DateUtc></FrequencyChange></FrequencyChanges></Clock>\n",60.004,1,-1225805330,06-26-2017,13:32:02,6:32:02 PM,57,A181508_1T.wav,SHE BUMPED her HEAD.   ,1T,TypeSPINProc,StimList,many{SPACE}people{SPACE}want{SPACE}to{SPACE}start{SPACE}the{SPACE}day{ESCAPE},17985,960554,56,1,57
SPIN,2003,1,"<?xml version=""1.0""?>\n<Clock xmlns:dt=""urn:schemas-microsoft-com:datatypes""><Description dt:dt=""string"">E-Prime Primary Realtime Clock</Description><StartTime><Timestamp dt:dt=""int"">0</Timestamp><DateUtc dt:dt=""string"">2017-06-26T18:32:02Z</DateUtc></StartTime><FrequencyChanges><FrequencyChange><Frequency dt:dt=""r8"">2923095</Frequency><Timestamp dt:dt=""r8"">15953492135</Timestamp><Current dt:dt=""r8"">0</Current><DateUtc dt:dt=""string"">2017-06-26T18:32:02Z</DateUtc></FrequencyChange></FrequencyChanges></Clock>\n",60.004,1,-1225805330,06-26-2017,13:32:02,6:32:02 PM,58,A181511_1T.wav,The TINY BABY was PRETTY.   ,1T,TypeSPINProc,StimList,{SHIFT}Bob{SPACE}watched{SPACE}{ESCAPE},13190,974441,59,1,58
SPIN,2003,1,"<?xml version=""1.0""?>\n<Clock xmlns:dt=""urn:schemas-microsoft-com:datatypes""><Description dt:dt=""string"">E-Prime Primary Realtime Clock</Description><StartTime><Timestamp dt:dt=""int"">0</Timestamp><DateUtc dt:dt=""string"">2017-06-26T18:32:02Z</DateUtc></StartTime><FrequencyChanges><FrequencyChange><Frequency dt:dt=""r8"">2923095</Frequency><Timestamp dt:dt=""r8"">15953492135</Timestamp><Current dt:dt=""r8"">0</Current><DateUtc dt:dt=""string"">2017-06-26T18:32:02Z</DateUtc></FrequencyChange></FrequencyChanges></Clock>\n",60.004,1,-1225805330,06-26-2017,13:32:02,6:32:02 PM,59,A180712_2T.wav,FATHER FORGOT the BREAD.   ,2Talker,TypeSPINProc,StimList,she{SPACE}was{SPACE}trained{SPACE}by{SPACE}her{SPACE}coach{ESCAPE},14108,992792,12,1,59
SPIN,2003,1,"<?xml version=""1.0""?>\n<Clock xmlns:dt=""urn:schemas-microsoft-com:datatypes""><Description dt:dt=""string"">E-Prime Primary Realtime Clock</Description><StartTime><Timestamp dt:dt=""int"">0</Timestamp><DateUtc dt:dt=""string"">2017-06-26T18:32:02Z</DateUtc></StartTime><FrequencyChanges><FrequencyChange><Frequency dt:dt=""r8"">2923095</Frequency><Timestamp dt:dt=""r8"">15953492135</Timestamp><Current dt:dt=""r8"">0</Current><DateUtc dt:dt=""string"">2017-06-26T18:32:02Z</DateUtc></FrequencyChange></FrequencyChanges></Clock>\n",60.004,1,-1225805330,06-26-2017,13:32:02,6:32:02 PM,60,A181503_1T.wav,HE is SUCKING his THUMB.   ,1T,TypeSPINProc,StimList,wear{SPACE}on{SPACE}my{SPACE}hand{SPACE}and{SPACE}on{SPACE}my{SPACE}head{SPACE}{ESCAPE},14780,1008479,51,1,60
SPIN,2003,1,"<?xml version=""1.0""?>\n<Clock xmlns:dt=""urn:schemas-microsoft-com:datatypes""><Description dt:dt=""string"">E-Prime Primary Realtime Clock</Description><StartTime><Timestamp dt:dt=""int"">0</Timestamp><DateUtc dt:dt=""string"">2017-06-26T18:32:02Z</DateUtc></StartTime><FrequencyChanges><FrequencyChange><Frequency dt:dt=""r8"">2923095</Frequency><Timestamp dt:dt=""r8"">15953492135</Timestamp><Current dt:dt=""r8"">0</Current><DateUtc dt:dt=""string"">2017-06-26T18:32:02Z</DateUtc></FrequencyChange></FrequencyChanges></Clock>\n",60.004,1,-1225805330,06-26-2017,13:32:02,6:32:02 PM,61,A180906_8T.wav,A LETTER FELL on the FLOOR.   ,SSN,TypeSPINProc,StimList,{SHIFT}X{ESCAPE},3829,1013127,22,1,61
SPIN,2003,1,"<?xml version=""1.0""?>\n<Clock xmlns:dt=""urn:schemas-microsoft-com:datatypes""><Description dt:dt=""string"">E-Prime Primary Realtime Clock</Description><StartTime><Timestamp dt:dt=""int"">0</Timestamp><DateUtc dt:dt=""string"">2017-06-26T18:32:02Z</DateUtc></StartTime><FrequencyChanges><FrequencyChange><Frequency dt:dt=""r8"">2923095</Frequency><Timestamp dt:dt=""r8"">15953492135</Timestamp><Current dt:dt=""r8"">0</Current><DateUtc dt:dt=""string"">2017-06-26T18:32:02Z</DateUtc></FrequencyChange></FrequencyChanges></Clock>\n",60.004,1,-1225805330,06-26-2017,13:32:02,6:32:02 PM,62,A180709_2T.wav,The BUS LEFT EARLY.   ,2Talker,TypeSPINProc,StimList,monday{SPACE}is{SPACE}the{SPACE}first{SPACE}day{ESCAPE},16536,1029934,9,1,62
SPIN,2003,1,"<?xml version=""1.0""?>\n<Clock xmlns:dt=""urn:schemas-microsoft-com:datatypes""><Description dt:dt=""string"">E-Prime Primary Realtime Clock</Description><StartTime><Timestamp dt:dt=""int"">0</Timestamp><DateUtc dt:dt=""string"">2017-06-26T18:32:02Z</DateUtc></StartTime><FrequencyChanges><FrequencyChange><Frequency dt:dt=""r8"">2923095</Frequency><Timestamp dt:dt=""r8"">15953492135</Timestamp><Current dt:dt=""r8"">0</Current><DateUtc dt:dt=""string"">2017-06-26T18:32:02Z</DateUtc></FrequencyChange></FrequencyChanges></Clock>\n",60.004,1,-1225805330,06-26-2017,13:32:02,6:32:02 PM,63,A181003_SSN.wav,THEY SAT on a WOODEN BENCH.   ,SSN,TypeSPINProc,StimList,{SHIFT}He{SPACE}sat{SPACE}on{SPACE}{ESCAPE},7504,1038101,35,1,63
SPIN,2003,1,"<?xml version=""1.0""?>\n<Clock xmlns:dt=""urn:schemas-microsoft-com:datatypes""><Description dt:dt=""string"">E-Prime Primary Realtime Clock</Description><StartTime><Timestamp dt:dt=""int"">0</Timestamp><DateUtc dt:dt=""string"">2017-06-26T18:32:02Z</DateUtc></StartTime><FrequencyChanges><FrequencyChange><Frequency dt:dt=""r8"">2923095</Frequency><Timestamp dt:dt=""r8"">15953492135</Timestamp><Current dt:dt=""r8"">0</Current><DateUtc dt:dt=""string"">2017-06-26T18:32:02Z</DateUtc></FrequencyChange></FrequencyChanges></Clock>\n",60.004,1,-1225805330,06-26-2017,13:32:02,6:32:02 PM,64,A180912_8T.wav,The LADY PACKED her BAG.   ,SSN,TypeSPINProc,StimList,{SHIFT}The{SPACE}lady{SPACE}packed{SPACE}her{SPACE}bag{SPACE}{ESCAPE},12744,1051941,28,1,64