ExperimentName,Subject,Session,Clock.Information,Display.RefreshRate,Group,RandomSeed,SessionDate,SessionTime,SessionTimeUtc,Block,Filename,FileText,Noise,Procedure,Running,Slide1.RESP,Slide1.RT,Slide1.RTTime,StimList,StimList.Cycle,StimList.Sample
SPIN,2021,1,"<?xml version=""1.0""?>\n<Clock xmlns:dt=""urn:schemas-microsoft-com:datatypes""><Description dt:dt=""string"">E-Prime Primary Realtime Clock</Description><StartTime><Timestamp dt:dt=""int"">0</Timestamp><DateUtc dt:dt=""string"">2017-07-13T16:35:22Z</DateUtc></StartTime><FrequencyChanges><FrequencyChange><Frequency dt:dt=""r8"">2923105</Frequency><Timestamp dt:dt=""r8"">283001782129</Timestamp><Current dt:dt=""r8"">0</Current><DateUtc dt:dt=""string"">2017-07-13T16:35:22Z</DateUtc></FrequencyChange></FrequencyChanges></Clock>\n",60.004,1,-465482164,07-13-2017,11:35:22,4:35:22 PM,1,A180904_8T.wav,SHE STOOD near her WINDOW.   ,8Talker,TypeSPINProc,StimList,a{SPACE}rise{ESCAPE},22484,87369,20,1,1
SPIN,2021,1,"<?xml version=""1.0""?>\n<Clock xmlns:dt=""urn:schemas-microsoft-com:datatypes""><Description dt:dt=""string"">E-Prime Primary Realtime Clock</Description><StartTime><Timestamp dt:dt=""int"">0</Timestamp><DateUtc dt:dt=""string"">2017-07-13T16:35:22Z</DateUtc></StartTime><FrequencyChanges><FrequencyChange><Frequency dt:dt=""r8"">2923105</Frequency><Timestamp dt:dt=""r8"">283001782129</Timestamp><Current dt:dt=""r8"">0</Current><DateUtc dt:dt=""string"">2017-07-13T16:35:22Z</DateUtc></FrequencyChange></FrequencyChanges></Clock>\n",60.004,1,-465482164,07-13-2017,11:35:22,4:35:22 PM,2,A181015_SSN.wav,The BUCKETS HOLD WATER.   ,SSN,TypeSPINProc,StimList,a{SPACE}box{SPACE}is{SPACE}{ESCAPE},12347,105280,47,1,2
SPIN,2021,1,"<?xml version=""1.0""?>\n<Clock xmlns:dt=""urn:schemas-microsoft-com:datatypes""><Description dt:dt=""string"">E-Prime Primary Realtime Clock</Description><StartTime><Timestamp dt:dt=""int"">0</Timestamp><DateUtc dt:dt=""string"">2017-07-13T16:35:22Z</DateUtc></StartTime><FrequencyChanges><FrequencyChange><Frequency dt:dt=""r8"">2923105</Frequency><Timestamp dt:dt=""r8"">283001782129</Timestamp><Current dt:dt=""r8"">0</Current><DateUtc dt:dt=""string"">2017-07-13T16:35:22Z</DateUtc></FrequencyChange></FrequencyChanges></Clock>\n",60.004,1,-465482164,07-13-2017,11:35:22,4:35:22 PM,3,A180901_8T.wav,The BOOK TELLS a STORY.   ,8Talker,TypeSPINProc,StimList,tell{SPACE}where{SPACE}the{SPACE}{ESCAPE},20224,127007,17,1,3
SPIN,2021,1,"<?xml version=""1.0""?>\n<Clock xmlns:dt=""urn:schemas-microsoft-com:datatypes""><Description dt:dt=""string"">E-Prime Primary Realtime Clock</Description><StartTime><Timestamp dt:dt=""int"">0</Timestamp><DateUtc dt:dt=""string"">2017-07-13T16:35:22Z</DateUtc></StartTime><FrequencyChanges><FrequencyChange><Frequency dt:dt=""r8"">2923105</Frequency><Timestamp dt:dt=""r8"">283001782129</Timestamp><Current dt:dt=""r8"">0</Current><DateUtc dt:dt=""string"">2017-07-13T16:35:22Z</DateUtc></FrequencyChange></FrequencyChanges></Clock>\n",60.004,1,-465482164,07-13-2017,11:35:22,4:35:22 PM,4,A181005_SSN.wav,THEY FOLLOWED the PATH.   ,SSN,TypeSPINProc,StimList,they{SPACE}call{SPACE}them{SPACE}{ESCAPE},10383,139214,37,1,4
SPIN,2021,1,"<?xml version=""1.0""?>\n<Clock xmlns:dt=""urn:schemas-microsoft-com:datatypes""><Description dt:dt=""string"">E-Prime Primary Realtime Clock</Description><StartTime><Timestamp dt:dt=""int"">0</Timestamp><DateUtc dt:dt=""string"">2017-07-13T16:35:22Z</DateUtc></StartTime><FrequencyChanges><FrequencyChange><Frequency dt:dt=""r8"">2923105</Frequency><Timestamp dt:dt=""r8"">283001782129</Timestamp><Current dt:dt=""r8"">0</Current><DateUtc dt:dt=""string"">2017-07-13T16:35:22Z</DateUtc></FrequencyChange></FrequencyChanges></Clock>\n",60.004,1,-465482164,07-13-2017,11:35:22,4:35:22 PM,5,A180709_2T.wav,The BUS LEFT EARLY.   ,2Talker,TypeSPINProc,StimList,one{SPACE}day{SPACE}there{SPACE}is{SPACE}a{SPACE}{SPACE}in{SPACE}the{SPACE}car{ESCAPE},13577,156157,9,1,5
SPIN,2021,1,"<?xml version=""1.0""?>\n<Clock xmlns:dt=""urn:schemas-microsoft-com:datatypes""><Description dt:dt=""string"">E-Prime Primary Realtime Clock</Description><StartTime><Timestamp dt:dt=""int"">0</Timestamp><DateUtc dt:dt=""string"">2017-07-13T16:35:22Z</DateUtc></StartTime><FrequencyChanges><FrequencyChange><Frequency dt:dt=""r8"">2923105</Frequency><Timestamp dt:dt=""r8"">283001782129</Timestamp><Current dt:dt=""r8"">0</Current><DateUtc dt:dt=""string"">2017-07-13T16:35:22Z</DateUtc></FrequencyChange></FrequencyChanges></Clock>\n",60.004,1,-465482164,07-13-2017,11:35:22,4:35:22 PM,6,A181013_SSN.wav,The SHIRTS are HANGING in the CLOSET.   ,SSN,TypeSPINProc,StimList,the{SPACE}shirt{SPACE}is{SPACE}{SPACE}as{SPACE}possible{ESCAPE},13549,170612,45,1,6
SPIN,2021,1,"<?xml version=""1.0""?>\n<Clock xmlns:dt=""urn:schemas-microsoft-com:datatypes""><Description dt:dt=""string"">E-Prime Primary Realtime Clock</Description><StartTime><Timestamp dt:dt=""int"">0</Timestamp><DateUtc dt:dt=""string"">2017-07-13T16:35:22Z</DateUtc></StartTime><FrequencyChanges><FrequencyChange><Frequency dt:dt=""r8"">2923105</Frequency><Timestamp dt:dt=""r8"">283001782129</Timestamp><Current dt:dt=""r8"">0</Current><DateUtc dt:dt=""string"">2017-07-13T16:35:22Z</DateUtc></FrequencyChange></FrequencyChanges></Clock>\n",60.004,1,-465482164,07-13-2017,11:35:22,4:35:22 PM,7,A181504_1T.wav,The SHOP CLOSED for LUNCH.   ,1T,TypeSPINProc,StimList,first{SPACE}drink{SPACE}the{SPACE}bottle{SPACE}we{SPACE}heard{SPACE}the{SPACE}tick{ESCAPE},26533,198578,52,1,7
SPIN,2021,1,"<?xml version=""1.0""?>\n<Clock xmlns:dt=""urn:schemas-microsoft-com:datatypes""><Description dt:dt=""string"">E-Prime Primary Realtime Clock</Description><StartTime><Timestamp dt:dt=""int"">0</Timestamp><DateUtc dt:dt=""string"">2017-07-13T16:35:22Z</DateUtc></StartTime><FrequencyChanges><FrequencyChange><Frequency dt:dt=""r8"">2923105</Frequency><Timestamp dt:dt=""r8"">283001782129</Timestamp><Current dt:dt=""r8"">0</Current><DateUtc dt:dt=""string"">2017-07-13T16:35:22Z</DateUtc></FrequencyChange></FrequencyChanges></Clock>\n",60.004,1,-465482164,07-13-2017,11:35:22,4:35:22 PM,8,A181012_SSN.wav,The MILK was by the FRONT DOOR.   ,SSN,TypeSPINProc,StimList,the{SPACE}node{SPACE}is{SPACE}{ESCAPE},12429,212089,44,1,8
SPIN,2021,1,"<?xml version=""1.0""?>\n<Clock xmlns:dt=""urn:schemas-microsoft-com:datatypes""><Description dt:dt=""string"">E-Prime Primary Realtime Clock</Description><StartTime><Timestamp dt:dt=""int"">0</Timestamp><DateUtc dt:dt=""string"">2017-07-13T16:35:22Z</DateUtc></StartTime><FrequencyChanges><FrequencyChange><Frequency dt:dt=""r8"">2923105</Frequency><Timestamp dt:dt=""r8"">283001782129</Timestamp><Current dt:dt=""r8"">0</Current><DateUtc dt:dt=""string"">2017-07-13T16:35:22Z</DateUtc></FrequencyChange></FrequencyChanges></Clock>\n",60.004,1,-465482164,07-13-2017,11:35:22,4:35:22 PM,9,A181006_SSN.wav,The KITCHEN CLOCK was WRONG.   ,SSN,TypeSPINProc,StimList,it{SPACE}is{SPACE}{SPACE}{SPACE}block{ESCAPE},26176,241935,38,1,9
SPIN,2021,1,"<?xml version=""1.0""?>\n<Clock xmlns:dt=""urn:schemas-microsoft-com:datatypes""><Description dt:dt=""string"">E-Prime Primary Realtime Clock</Description><StartTime><Timestamp dt:dt=""int"">0</Timestamp><DateUtc dt:dt=""string"">2017-07-13T16:35:22Z</DateUtc></StartTime><FrequencyChanges><FrequencyChange><Frequency dt:dt=""r8"">2923105</Frequency><Timestamp dt:dt=""r8"">283001782129</Timestamp><Current dt:dt=""r8"">0</Current><DateUtc dt:dt=""string"">2017-07-13T16:35:22Z</DateUtc></FrequencyChange></FrequencyChanges></Clock>\n",60.004,1,-465482164,07-13-2017,11:35:22,4:35:22 PM,10,A180913_8T.wav,The DINNER PLATE is HOT.   ,SSN,TypeSPINProc,StimList,the{SPACE}general{SPACE}place{SPACE}is{SPACE}hard{SPACE}to{SPACE}tell{ESCAPE},19095,262086,29,1,10
SPIN,2021,1,"<?xml version=""1.0""?>\n<Clock xmlns:dt=""urn:schemas-microsoft-com:datatypes""><Description dt:dt=""string"">E-Prime Primary Realtime Clock</Description><StartTime><Timestamp dt:dt=""int"">0</Timestamp><DateUtc dt:dt=""string"">2017-07-13T16:35:22Z</DateUtc></StartTime><FrequencyChanges><FrequencyChange><Frequency dt:dt=""r8"">2923105</Frequency><Timestamp dt:dt=""r8"">283001782129</Timestamp><Current dt:dt=""r8"">0</Current><DateUtc dt:dt=""string"">2017-07-13T16:35:22Z</DateUtc></FrequencyChange></FrequencyChanges></Clock>\n",60.004,1,-465482164,07-13-2017,11:35:22,4:35:22 PM,11,A181502_1T.wav,The OVEN is TOO HOT.,1T,TypeSPINProc,StimList,monday{SPACE}is{SPACE}the{SPACE}first{SPACE}day{SPACE}of{SPACE}the{SPACE}week{ESCAPE},13798,277621,50,1,11
SPIN,2021,1,"<?xml version=""1.0""?>\n<Clock xmlns:dt=""urn:schemas-microsoft-com:datatypes""><Description dt:dt=""string"">E-Prime Primary Realtime Clock</Description><StartTime><Timestamp dt:dt=""int"">0</Timestamp><DateUtc dt:dt=""string"">2017-07-13T16:35:22Z</DateUtc></StartTime><FrequencyChanges><FrequencyChange><Frequency dt:dt=""r8"">2923105</Frequency><Timestamp dt:dt=""r8"">283001782129</Timestamp><Current dt:dt=""r8"">0</Current><DateUtc dt:dt=""string"">2017-07-13T16:35:22Z</DateUtc></FrequencyChange></FrequencyChanges></Clock>\n",60.004,1,-465482164,07-13-2017,11:35:22,4:35:22 PM,12,A181513_1T.wav,THEY WALKED ACROSS the GRASS.   ,1T,TypeSPINProc,StimList,water{SPACE}is{SPACE}{SPACE}over{SPACE}my{SPACE}head{ESCAPE},12735,291540,61,1,12
SPIN,2021,1,"<?xml version=""1.0""?>\n<Clock xmlns:dt=""urn:schemas-microsoft-com:datatypes""><Description dt:dt=""string"">E-Prime Primary Realtime Clock</Description><StartTime><Timestamp dt:dt=""int"">0</Timestamp><DateUtc dt:dt=""string"">2017-07-13T16:35:22Z</DateUtc></StartTime><FrequencyChanges><FrequencyChange><Frequency dt:dt=""r8"">2923105</Frequency><Timestamp dt:dt=""r8"">283001782129</Timestamp><Current dt:dt=""r8"">0</Current><DateUtc dt:dt=""string"">2017-07-13T16:35:22Z</DateUtc></FrequencyChange></FrequencyChanges></Clock>\n",60.004,1,-465482164,07-13-2017,11:35:22,4:35:22 PM,13,A180915_8T.wav,The CHILD DRANK some MILK.   ,SSN,TypeSPINProc,StimList,the{SPACE}child{SPACE}drinks{SPACE}milk{ESCAPE},9635,301956,31,1,13
SPIN,2021,1,"<?xml version=""1.0""?>\n<Clock xmlns:dt=""urn:schemas-microsoft-com:datatypes""><Description dt:dt=""string"">E-Prime Primary Realtime Clock</Description><StartTime><Timestamp dt:dt=""int"">0</Timestamp><DateUtc dt:dt=""string"">2017-07-13T16:35:22Z</DateUtc></StartTime><FrequencyChanges><FrequencyChange><Frequency dt:dt=""r8"">2923105</Frequency><Timestamp dt:dt=""r8"">283001782129</Timestamp><Current dt:dt=""r8"">0</Current><DateUtc dt:dt=""string"">2017-07-13T16:35:22Z</DateUtc></FrequencyChange></FrequencyChanges></Clock>\n",60.004,1,-465482164,07-13-2017,11:35:22,4:35:22 PM,14,A181515_1T.wav,The TRAIN STOPS at the STATION.   ,1T,TypeSPINProc,StimList,who{SPACE}deserve{SPACE}an{SPACE}apple{SPACE}pie{SPACE}right{ESCAPE},25809,328346,63,1,14
SPIN,2021,1,"<?xml version=""1.0""?>\n<Clock xmlns:dt=""urn:schemas-microsoft-com:datatypes""><Description dt:dt=""string"">E-Prime Primary Realtime Clock</Description><StartTime><Timestamp dt:dt=""int"">0</Timestamp><DateUtc dt:dt=""string"">2017-07-13T16:35:22Z</DateUtc></StartTime><FrequencyChanges><FrequencyChange><Frequency dt:dt=""r8"">2923105</Frequency><Timestamp dt:dt=""r8"">283001782129</Timestamp><Current dt:dt=""r8"">0</Current><DateUtc dt:dt=""string"">2017-07-13T16:35:22Z</DateUtc></FrequencyChange></FrequencyChanges></Clock>\n",60.004,1,-465482164,07-13-2017,11:35:22,4:35:22 PM,15,A180903_8T.wav,THEY are CLIMBING the TREE.   ,8Talker,TypeSPINProc,StimList,there{SPACE}are{SPACE}vilence{ESCAPE},29613,359032,19,1,15
SPIN,2021,1,"<?xml version=""1.0""?>\n<Clock xmlns:dt=""urn:schemas-microsoft-com:datatypes""><Description dt:dt=""string"">E-Prime Primary Realtime Clock</Description><StartTime><Timestamp dt:dt=""int"">0</Timestamp><DateUtc dt:dt=""string"">2017-07-13T16:35:22Z</DateUtc></StartTime><FrequencyChanges><FrequencyChange><Frequency dt:dt=""r8"">2923105</Frequency><Timestamp dt:dt=""r8"">283001782129</Timestamp><Current dt:dt=""r8"">0</Current><DateUtc dt:dt=""string"">2017-07-13T16:35:22Z</DateUtc></FrequencyChange></FrequencyChanges></Clock>\n",60.004,1,-465482164,07-13-2017,11:35:22,4:35:22 PM,16,A181011_SSN.wav,HE BROKE his LEG.   ,SSN,TypeSPINProc,StimList,{SHIFT}X{ESCAPE},9005,369455,43,1,16
SPIN,2021,1,"<?xml version=""1.0""?>\n<Clock xmlns:dt=""urn:schemas-microsoft-com:datatypes""><Description dt:dt=""string"">E-Prime Primary Realtime Clock</Description><StartTime><Timestamp dt:dt=""int"">0</Timestamp><DateUtc dt:dt=""string"">2017-07-13T16:35:22Z</DateUtc></StartTime><FrequencyChanges><FrequencyChange><Frequency dt:dt=""r8"">2923105</Frequency><Timestamp dt:dt=""r8"">283001782129</Timestamp><Current dt:dt=""r8"">0</Current><DateUtc dt:dt=""string"">2017-07-13T16:35:22Z</DateUtc></FrequencyChange></FrequencyChanges></Clock>\n",60.004,1,-465482164,07-13-2017,11:35:22,4:35:22 PM,17,A180914_8T.wav,The TRAIN is MOVING FAST.   ,SSN,TypeSPINProc,StimList,the{SPACE}train{SPACE}will{SPACE}be{SPACE}passed{ESCAPE},10501,381167,30,1,17
SPIN,2021,1,"<?xml version=""1.0""?>\n<Clock xmlns:dt=""urn:schemas-microsoft-com:datatypes""><Description dt:dt=""string"">E-Prime Primary Realtime Clock</Description><StartTime><Timestamp dt:dt=""int"">0</Timestamp><DateUtc dt:dt=""string"">2017-07-13T16:35:22Z</DateUtc></StartTime><FrequencyChanges><FrequencyChange><Frequency dt:dt=""r8"">2923105</Frequency><Timestamp dt:dt=""r8"">283001782129</Timestamp><Current dt:dt=""r8"">0</Current><DateUtc dt:dt=""string"">2017-07-13T16:35:22Z</DateUtc></FrequencyChange></FrequencyChanges></Clock>\n",60.004,1,-465482164,07-13-2017,11:35:22,4:35:22 PM,18,A180706_2T.wav,MOTHER GOT a SAUCEPAN.,2Talker,TypeSPINProc,StimList,the{SPACE}paul{'}s{SPACE}mother{SPACE}is{SPACE}a{SPACE}physain{ESCAPE},52362,434611,6,1,18
SPIN,2021,1,"<?xml version=""1.0""?>\n<Clock xmlns:dt=""urn:schemas-microsoft-com:datatypes""><Description dt:dt=""string"">E-Prime Primary Realtime Clock</Description><StartTime><Timestamp dt:dt=""int"">0</Timestamp><DateUtc dt:dt=""string"">2017-07-13T16:35:22Z</DateUtc></StartTime><FrequencyChanges><FrequencyChange><Frequency dt:dt=""r8"">2923105</Frequency><Timestamp dt:dt=""r8"">283001782129</Timestamp><Current dt:dt=""r8"">0</Current><DateUtc dt:dt=""string"">2017-07-13T16:35:22Z</DateUtc></FrequencyChange></FrequencyChanges></Clock>\n",60.004,1,-465482164,07-13-2017,11:35:22,4:35:22 PM,19,A180716_2T.wav,The NEW ROAD is on the MAP.   ,2Talker,TypeSPINProc,StimList,the{SPACE}road{SPACE}they{SPACE}build{SPACE}they{SPACE}are{SPACE}not{ESCAPE},20849,455978,16,1,19
SPIN,2021,1,"<?xml version=""1.0""?>\n<Clock xmlns:dt=""urn:schemas-microsoft-com:datatypes""><Description dt:dt=""string"">E-Prime Primary Realtime Clock</Description><StartTime><Timestamp dt:dt=""int"">0</Timestamp><DateUtc dt:dt=""string"">2017-07-13T16:35:22Z</DateUtc></StartTime><FrequencyChanges><FrequencyChange><Frequency dt:dt=""r8"">2923105</Frequency><Timestamp dt:dt=""r8"">283001782129</Timestamp><Current dt:dt=""r8"">0</Current><DateUtc dt:dt=""string"">2017-07-13T16:35:22Z</DateUtc></FrequencyChange></FrequencyChanges></Clock>\n",60.004,1,-465482164,07-13-2017,11:35:22,4:35:22 PM,20,A180712_2T.wav,FATHER FORGOT the BREAD.   ,2Talker,TypeSPINProc,StimList,people{SPACE}would{SPACE}rather{SPACE}to{SPACE}wear{SPACE}bother{SPACE}coat{SPACE}{SPACE}she{SPACE}was{ESCAPE},25921,482448,12,1,20
SPIN,2021,1,"<?xml version=""1.0""?>\n<Clock xmlns:dt=""urn:schemas-microsoft-com:datatypes""><Description dt:dt=""string"">E-Prime Primary Realtime Clock</Description><StartTime><Timestamp dt:dt=""int"">0</Timestamp><DateUtc dt:dt=""string"">2017-07-13T16:35:22Z</DateUtc></StartTime><FrequencyChanges><FrequencyChange><Frequency dt:dt=""r8"">2923105</Frequency><Timestamp dt:dt=""r8"">283001782129</Timestamp><Current dt:dt=""r8"">0</Current><DateUtc dt:dt=""string"">2017-07-13T16:35:22Z</DateUtc></FrequencyChange></FrequencyChanges></Clock>\n",60.004,1,-465482164,07-13-2017,11:35:22,4:35:22 PM,21,A180902_8T.wav,The YOUNG BOY LEFT HOME.   ,8Talker,TypeSPINProc,StimList,what{SPACE}is{SPACE}your{SPACE}{SHIFT}{.}{.}{.}{ESCAPE},17345,500271,18,1,21
SPIN,2021,1,"<?xml version=""1.0""?>\n<Clock xmlns:dt=""urn:schemas-microsoft-com:datatypes""><Description dt:dt=""string"">E-Prime Primary Realtime Clock</Description><StartTime><Timestamp dt:dt=""int"">0</Timestamp><DateUtc dt:dt=""string"">2017-07-13T16:35:22Z</DateUtc></StartTime><FrequencyChanges><FrequencyChange><Frequency dt:dt=""r8"">2923105</Frequency><Timestamp dt:dt=""r8"">283001782129</Timestamp><Current dt:dt=""r8"">0</Current><DateUtc dt:dt=""string"">2017-07-13T16:35:22Z</DateUtc></FrequencyChange></FrequencyChanges></Clock>\n",60.004,1,-465482164,07-13-2017,11:35:22,4:35:22 PM,22,A180704_2T.wav,SHE FOUND her PURSE.,2Talker,TypeSPINProc,StimList,where{SPACE}is{SPACE}my{SPACE}hat{SPACE}{SPACE}in{SPACE}springs{ESCAPE},12025,513566,4,1,22
SPIN,2021,1,"<?xml version=""1.0""?>\n<Clock xmlns:dt=""urn:schemas-microsoft-com:datatypes""><Description dt:dt=""string"">E-Prime Primary Realtime Clock</Description><StartTime><Timestamp dt:dt=""int"">0</Timestamp><DateUtc dt:dt=""string"">2017-07-13T16:35:22Z</DateUtc></StartTime><FrequencyChanges><FrequencyChange><Frequency dt:dt=""r8"">2923105</Frequency><Timestamp dt:dt=""r8"">283001782129</Timestamp><Current dt:dt=""r8"">0</Current><DateUtc dt:dt=""string"">2017-07-13T16:35:22Z</DateUtc></FrequencyChange></FrequencyChanges></Clock>\n",60.004,1,-465482164,07-13-2017,11:35:22,4:35:22 PM,23,A181510_1T.wav,The RAINCOAT is HANGING UP.  ,1T,TypeSPINProc,StimList,the{SPACE}grind{SPACE}one{SPACE}day{SPACE}is{SPACE}the{SPACE}first{ESCAPE},15413,530437,58,1,23
SPIN,2021,1,"<?xml version=""1.0""?>\n<Clock xmlns:dt=""urn:schemas-microsoft-com:datatypes""><Description dt:dt=""string"">E-Prime Primary Realtime Clock</Description><StartTime><Timestamp dt:dt=""int"">0</Timestamp><DateUtc dt:dt=""string"">2017-07-13T16:35:22Z</DateUtc></StartTime><FrequencyChanges><FrequencyChange><Frequency dt:dt=""r8"">2923105</Frequency><Timestamp dt:dt=""r8"">283001782129</Timestamp><Current dt:dt=""r8"">0</Current><DateUtc dt:dt=""string"">2017-07-13T16:35:22Z</DateUtc></FrequencyChange></FrequencyChanges></Clock>\n",60.004,1,-465482164,07-13-2017,11:35:22,4:35:22 PM,24,A180906_8T.wav,A LETTER FELL on the FLOOR.   ,SSN,TypeSPINProc,StimList,{SHIFT}X{ESCAPE},16741,547980,22,1,24
SPIN,2021,1,"<?xml version=""1.0""?>\n<Clock xmlns:dt=""urn:schemas-microsoft-com:datatypes""><Description dt:dt=""string"">E-Prime Primary Realtime Clock</Description><StartTime><Timestamp dt:dt=""int"">0</Timestamp><DateUtc dt:dt=""string"">2017-07-13T16:35:22Z</DateUtc></StartTime><FrequencyChanges><FrequencyChange><Frequency dt:dt=""r8"">2923105</Frequency><Timestamp dt:dt=""r8"">283001782129</Timestamp><Current dt:dt=""r8"">0</Current><DateUtc dt:dt=""string"">2017-07-13T16:35:22Z</DateUtc></FrequencyChange></FrequencyChanges></Clock>\n",60.004,1,-465482164,07-13-2017,11:35:22,4:35:22 PM,25,A181516_1T.wav,The PUPPY PLAYS with a BALL.   ,1T,TypeSPINProc,StimList,the{SPACE}word{SPACE}plain{SPACE}drop{SPACE}the{SPACE}ball{SPACE}the{SPACE}color{ENTER}{ESCAPE},19708,568579,64,1,25
SPIN,2021,1,"<?xml version=""1.0""?>\n<Clock xmlns:dt=""urn:schemas-microsoft-com:datatypes""><Description dt:dt=""string"">E-Prime Primary Realtime Clock</Description><StartTime><Timestamp dt:dt=""int"">0</Timestamp><DateUtc dt:dt=""string"">2017-07-13T16:35:22Z</DateUtc></StartTime><FrequencyChanges><FrequencyChange><Frequency dt:dt=""r8"">2923105</Frequency><Timestamp dt:dt=""r8"">283001782129</Timestamp><Current dt:dt=""r8"">0</Current><DateUtc dt:dt=""string"">2017-07-13T16:35:22Z</DateUtc></FrequencyChange></FrequencyChanges></Clock>\n",60.004,1,-465482164,07-13-2017,11:35:22,4:35:22 PM,26,A180909_8T.wav,The DISHCLOTH is VERY WET.  ,8Talker,TypeSPINProc,StimList,the{SPACE}class{SPACE}one{SPACE}day{ESCAPE},12309,582362,25,1,26
SPIN,2021,1,"<?xml version=""1.0""?>\n<Clock xmlns:dt=""urn:schemas-microsoft-com:datatypes""><Description dt:dt=""string"">E-Prime Primary Realtime Clock</Description><StartTime><Timestamp dt:dt=""int"">0</Timestamp><DateUtc dt:dt=""string"">2017-07-13T16:35:22Z</DateUtc></StartTime><FrequencyChanges><FrequencyChange><Frequency dt:dt=""r8"">2923105</Frequency><Timestamp dt:dt=""r8"">283001782129</Timestamp><Current dt:dt=""r8"">0</Current><DateUtc dt:dt=""string"">2017-07-13T16:35:22Z</DateUtc></FrequencyChange></FrequencyChanges></Clock>\n",60.004,1,-465482164,07-13-2017,11:35:22,4:35:22 PM,27,A181511_1T.wav,The TINY BABY was PRETTY.   ,1T,TypeSPINProc,StimList,the{SPACE}ball{SPACE}wall{SPACE}rest{SPACE}on{SPACE}an{SPACE}elephant{ESCAPE},22298,605201,59,1,27
SPIN,2021,1,"<?xml version=""1.0""?>\n<Clock xmlns:dt=""urn:schemas-microsoft-com:datatypes""><Description dt:dt=""string"">E-Prime Primary Realtime Clock</Description><StartTime><Timestamp dt:dt=""int"">0</Timestamp><DateUtc dt:dt=""string"">2017-07-13T16:35:22Z</DateUtc></StartTime><FrequencyChanges><FrequencyChange><Frequency dt:dt=""r8"">2923105</Frequency><Timestamp dt:dt=""r8"">283001782129</Timestamp><Current dt:dt=""r8"">0</Current><DateUtc dt:dt=""string"">2017-07-13T16:35:22Z</DateUtc></FrequencyChange></FrequencyChanges></Clock>\n",60.004,1,-465482164,07-13-2017,11:35:22,4:35:22 PM,28,A181503_1T.wav,HE is SUCKING his THUMB.   ,1T,TypeSPINProc,StimList,by{SPACE}send{SPACE}over{SPACE}my{SPACE}head{SPACE}or{SPACE}on{SPACE}my{SPACE}head{ESCAPE},20677,627095,51,1,28
SPIN,2021,1,"<?xml version=""1.0""?>\n<Clock xmlns:dt=""urn:schemas-microsoft-com:datatypes""><Description dt:dt=""string"">E-Prime Primary Realtime Clock</Description><StartTime><Timestamp dt:dt=""int"">0</Timestamp><DateUtc dt:dt=""string"">2017-07-13T16:35:22Z</DateUtc></StartTime><FrequencyChanges><FrequencyChange><Frequency dt:dt=""r8"">2923105</Frequency><Timestamp dt:dt=""r8"">283001782129</Timestamp><Current dt:dt=""r8"">0</Current><DateUtc dt:dt=""string"">2017-07-13T16:35:22Z</DateUtc></FrequencyChange></FrequencyChanges></Clock>\n",60.004,1,-465482164,07-13-2017,11:35:22,4:35:22 PM,29,A181007_SSN.wav,The DOG JUMPED ON the CHAIR.   ,SSN,TypeSPINProc,StimList,the{SPACE}dog{SPACE}drop{SPACE}the{SPACE}chain{ESCAPE},12687,640254,39,1,29
SPIN,2021,1,"<?xml version=""1.0""?>\n<Clock xmlns:dt=""urn:schemas-microsoft-com:datatypes""><Description dt:dt=""string"">E-Prime Primary Realtime Clock</Description><StartTime><Timestamp dt:dt=""int"">0</Timestamp><DateUtc dt:dt=""string"">2017-07-13T16:35:22Z</DateUtc></StartTime><FrequencyChanges><FrequencyChange><Frequency dt:dt=""r8"">2923105</Frequency><Timestamp dt:dt=""r8"">283001782129</Timestamp><Current dt:dt=""r8"">0</Current><DateUtc dt:dt=""string"">2017-07-13T16:35:22Z</DateUtc></FrequencyChange></FrequencyChanges></Clock>\n",60.004,1,-465482164,07-13-2017,11:35:22,4:35:22 PM,30,A180707_2T.wav,THEY WASHED in COLD WATER.   ,2Talker,TypeSPINProc,StimList,or{SPACE}water{SPACE}28{SPACE}days{ESCAPE},12539,653421,7,1,30
SPIN,2021,1,"<?xml version=""1.0""?>\n<Clock xmlns:dt=""urn:schemas-microsoft-com:datatypes""><Description dt:dt=""string"">E-Prime Primary Realtime Clock</Description><StartTime><Timestamp dt:dt=""int"">0</Timestamp><DateUtc dt:dt=""string"">2017-07-13T16:35:22Z</DateUtc></StartTime><FrequencyChanges><FrequencyChange><Frequency dt:dt=""r8"">2923105</Frequency><Timestamp dt:dt=""r8"">283001782129</Timestamp><Current dt:dt=""r8"">0</Current><DateUtc dt:dt=""string"">2017-07-13T16:35:22Z</DateUtc></FrequencyChange></FrequencyChanges></Clock>\n",60.004,1,-465482164,07-13-2017,11:35:22,4:35:22 PM,31,A181501_1T.wav,A MAN is TURNING the FAUCET.   ,1T,TypeSPINProc,StimList,the{SPACE}first{SPACE}{SPACE}{SPACE}on{SPACE}trees{ESCAPE},20730,674828,49,1,31
SPIN,2021,1,"<?xml version=""1.0""?>\n<Clock xmlns:dt=""urn:schemas-microsoft-com:datatypes""><Description dt:dt=""string"">E-Prime Primary Realtime Clock</Description><StartTime><Timestamp dt:dt=""int"">0</Timestamp><DateUtc dt:dt=""string"">2017-07-13T16:35:22Z</DateUtc></StartTime><FrequencyChanges><FrequencyChange><Frequency dt:dt=""r8"">2923105</Frequency><Timestamp dt:dt=""r8"">283001782129</Timestamp><Current dt:dt=""r8"">0</Current><DateUtc dt:dt=""string"">2017-07-13T16:35:22Z</DateUtc></FrequencyChange></FrequencyChanges></Clock>\n",60.004,1,-465482164,07-13-2017,11:35:22,4:35:22 PM,32,A181512_1T.wav,The DAUGHTER SET the TABLE.   ,1T,TypeSPINProc,StimList,the{SPACE}daughter{SPACE}said{SPACE}{SPACE}he{SPACE}has{SPACE}the{SPACE}apple{SPACE}pie{ESCAPE},17477,693091,60,1,32
SPIN,2021,1,"<?xml version=""1.0""?>\n<Clock xmlns:dt=""urn:schemas-microsoft-com:datatypes""><Description dt:dt=""string"">E-Prime Primary Realtime Clock</Description><StartTime><Timestamp dt:dt=""int"">0</Timestamp><DateUtc dt:dt=""string"">2017-07-13T16:35:22Z</DateUtc></StartTime><FrequencyChanges><FrequencyChange><Frequency dt:dt=""r8"">2923105</Frequency><Timestamp dt:dt=""r8"">283001782129</Timestamp><Current dt:dt=""r8"">0</Current><DateUtc dt:dt=""string"">2017-07-13T16:35:22Z</DateUtc></FrequencyChange></FrequencyChanges></Clock>\n",60.004,1,-465482164,07-13-2017,11:35:22,4:35:22 PM,33,A181003_SSN.wav,THEY SAT on a WOODEN BENCH.   ,SSN,TypeSPINProc,StimList,they{SPACE}said{SPACE}a{SPACE}lude{.}{.}{ESCAPE},14974,708570,35,1,33
SPIN,2021,1,"<?xml version=""1.0""?>\n<Clock xmlns:dt=""urn:schemas-microsoft-com:datatypes""><Description dt:dt=""string"">E-Prime Primary Realtime Clock</Description><StartTime><Timestamp dt:dt=""int"">0</Timestamp><DateUtc dt:dt=""string"">2017-07-13T16:35:22Z</DateUtc></StartTime><FrequencyChanges><FrequencyChange><Frequency dt:dt=""r8"">2923105</Frequency><Timestamp dt:dt=""r8"">283001782129</Timestamp><Current dt:dt=""r8"">0</Current><DateUtc dt:dt=""string"">2017-07-13T16:35:22Z</DateUtc></FrequencyChange></FrequencyChanges></Clock>\n",60.004,1,-465482164,07-13-2017,11:35:22,4:35:22 PM,34,A180705_2T.wav,The FRUIT IS on the GROUND.   ,2Talker,TypeSPINProc,StimList,is{SPACE}on{SPACE}the{SPACE}ground{SPACE}if{SPACE}you{SPACE}deserve{ESCAPE},14118,723313,5,1,34
SPIN,2021,1,"<?xml version=""1.0""?>\n<Clock xmlns:dt=""urn:schemas-microsoft-com:datatypes""><Description dt:dt=""string"">E-Prime Primary Realtime Clock</Description><StartTime><Timestamp dt:dt=""int"">0</Timestamp><DateUtc dt:dt=""string"">2017-07-13T16:35:22Z</DateUtc></StartTime><FrequencyChanges><FrequencyChange><Frequency dt:dt=""r8"">2923105</Frequency><Timestamp dt:dt=""r8"">283001782129</Timestamp><Current dt:dt=""r8"">0</Current><DateUtc dt:dt=""string"">2017-07-13T16:35:22Z</DateUtc></FrequencyChange></FrequencyChanges></Clock>\n",60.004,1,-465482164,07-13-2017,11:35:22,4:35:22 PM,35,A181016_SSN.wav,The CHICKEN LAID some EGGS.   ,SSN,TypeSPINProc,StimList,the{SPACE}chiken{SPACE}laid{SPACE}an{SPACE}egg{ESCAPE},9765,733592,48,1,35
SPIN,2021,1,"<?xml version=""1.0""?>\n<Clock xmlns:dt=""urn:schemas-microsoft-com:datatypes""><Description dt:dt=""string"">E-Prime Primary Realtime Clock</Description><StartTime><Timestamp dt:dt=""int"">0</Timestamp><DateUtc dt:dt=""string"">2017-07-13T16:35:22Z</DateUtc></StartTime><FrequencyChanges><FrequencyChange><Frequency dt:dt=""r8"">2923105</Frequency><Timestamp dt:dt=""r8"">283001782129</Timestamp><Current dt:dt=""r8"">0</Current><DateUtc dt:dt=""string"">2017-07-13T16:35:22Z</DateUtc></FrequencyChange></FrequencyChanges></Clock>\n",60.004,1,-465482164,07-13-2017,11:35:22,4:35:22 PM,36,A181008_SSN.wav,SOMEONE is CROSSING the ROAD.   ,SSN,TypeSPINProc,StimList,some{SPACE}one{SPACE}is{SPACE}across{SPACE}the{SPACE}road{ESCAPE},13249,747376,40,1,36
SPIN,2021,1,"<?xml version=""1.0""?>\n<Clock xmlns:dt=""urn:schemas-microsoft-com:datatypes""><Description dt:dt=""string"">E-Prime Primary Realtime Clock</Description><StartTime><Timestamp dt:dt=""int"">0</Timestamp><DateUtc dt:dt=""string"">2017-07-13T16:35:22Z</DateUtc></StartTime><FrequencyChanges><FrequencyChange><Frequency dt:dt=""r8"">2923105</Frequency><Timestamp dt:dt=""r8"">283001782129</Timestamp><Current dt:dt=""r8"">0</Current><DateUtc dt:dt=""string"">2017-07-13T16:35:22Z</DateUtc></FrequencyChange></FrequencyChanges></Clock>\n",60.004,1,-465482164,07-13-2017,11:35:22,4:35:22 PM,37,A180714_2T.wav,The ORANGE was VERY SWEET.   ,2Talker,TypeSPINProc,StimList,we{SPACE}heard{SPACE}the{SPACE}{SPACE}is{SPACE}very{SPACE}complicated{ESCAPE},15663,763839,14,1,37
SPIN,2021,1,"<?xml version=""1.0""?>\n<Clock xmlns:dt=""urn:schemas-microsoft-com:datatypes""><Description dt:dt=""string"">E-Prime Primary Realtime Clock</Description><StartTime><Timestamp dt:dt=""int"">0</Timestamp><DateUtc dt:dt=""string"">2017-07-13T16:35:22Z</DateUtc></StartTime><FrequencyChanges><FrequencyChange><Frequency dt:dt=""r8"">2923105</Frequency><Timestamp dt:dt=""r8"">283001782129</Timestamp><Current dt:dt=""r8"">0</Current><DateUtc dt:dt=""string"">2017-07-13T16:35:22Z</DateUtc></FrequencyChange></FrequencyChanges></Clock>\n",60.004,1,-465482164,07-13-2017,11:35:22,4:35:22 PM,38,A181508_1T.wav,SHE BUMPED her HEAD.   ,1T,TypeSPINProc,StimList,the{SPACE}bumped{SPACE}many{SPACE}has{SPACE}start{SPACE}the{SPACE}day{ESCAPE},19728,784053,56,1,38
SPIN,2021,1,"<?xml version=""1.0""?>\n<Clock xmlns:dt=""urn:schemas-microsoft-com:datatypes""><Description dt:dt=""string"">E-Prime Primary Realtime Clock</Description><StartTime><Timestamp dt:dt=""int"">0</Timestamp><DateUtc dt:dt=""string"">2017-07-13T16:35:22Z</DateUtc></StartTime><FrequencyChanges><FrequencyChange><Frequency dt:dt=""r8"">2923105</Frequency><Timestamp dt:dt=""r8"">283001782129</Timestamp><Current dt:dt=""r8"">0</Current><DateUtc dt:dt=""string"">2017-07-13T16:35:22Z</DateUtc></FrequencyChange></FrequencyChanges></Clock>\n",60.004,1,-465482164,07-13-2017,11:35:22,4:35:22 PM,39,A180907_8T.wav,The FIVE MEN are WORKING.    ,8Talker,TypeSPINProc,StimList,where{SPACE}they{SPACE}just{SPACE}have{SPACE}the{ESCAPE},14892,799532,23,1,39
SPIN,2021,1,"<?xml version=""1.0""?>\n<Clock xmlns:dt=""urn:schemas-microsoft-com:datatypes""><Description dt:dt=""string"">E-Prime Primary Realtime Clock</Description><StartTime><Timestamp dt:dt=""int"">0</Timestamp><DateUtc dt:dt=""string"">2017-07-13T16:35:22Z</DateUtc></StartTime><FrequencyChanges><FrequencyChange><Frequency dt:dt=""r8"">2923105</Frequency><Timestamp dt:dt=""r8"">283001782129</Timestamp><Current dt:dt=""r8"">0</Current><DateUtc dt:dt=""string"">2017-07-13T16:35:22Z</DateUtc></FrequencyChange></FrequencyChanges></Clock>\n",60.004,1,-465482164,07-13-2017,11:35:22,4:35:22 PM,40,A180910_8T.wav,THEY WENT on a VACATION.   ,SSN,TypeSPINProc,StimList,they{SPACE}went{SPACE}up{SPACE}the{SPACE}ecation{ESCAPE},26476,826715,26,1,40
SPIN,2021,1,"<?xml version=""1.0""?>\n<Clock xmlns:dt=""urn:schemas-microsoft-com:datatypes""><Description dt:dt=""string"">E-Prime Primary Realtime Clock</Description><StartTime><Timestamp dt:dt=""int"">0</Timestamp><DateUtc dt:dt=""string"">2017-07-13T16:35:22Z</DateUtc></StartTime><FrequencyChanges><FrequencyChange><Frequency dt:dt=""r8"">2923105</Frequency><Timestamp dt:dt=""r8"">283001782129</Timestamp><Current dt:dt=""r8"">0</Current><DateUtc dt:dt=""string"">2017-07-13T16:35:22Z</DateUtc></FrequencyChange></FrequencyChanges></Clock>\n",60.004,1,-465482164,07-13-2017,11:35:22,4:35:22 PM,41,A180701_2T.wav,The CHILDREN DROPPED the BAG,2Talker,TypeSPINProc,StimList,the{SPACE}children{SPACE}drop{SPACE}the{SPACE}bag{ESCAPE},13813,841834,1,1,41
SPIN,2021,1,"<?xml version=""1.0""?>\n<Clock xmlns:dt=""urn:schemas-microsoft-com:datatypes""><Description dt:dt=""string"">E-Prime Primary Realtime Clock</Description><StartTime><Timestamp dt:dt=""int"">0</Timestamp><DateUtc dt:dt=""string"">2017-07-13T16:35:22Z</DateUtc></StartTime><FrequencyChanges><FrequencyChange><Frequency dt:dt=""r8"">2923105</Frequency><Timestamp dt:dt=""r8"">283001782129</Timestamp><Current dt:dt=""r8"">0</Current><DateUtc dt:dt=""string"">2017-07-13T16:35:22Z</DateUtc></FrequencyChange></FrequencyChanges></Clock>\n",60.004,1,-465482164,07-13-2017,11:35:22,4:35:22 PM,42,A181002_SSN.wav,The JANITOR USED a BROOM.   ,SSN,TypeSPINProc,StimList,the{SPACE}general{SPACE}is{SPACE}a{SPACE}grood{ESCAPE},16184,858537,34,1,42
SPIN,2021,1,"<?xml version=""1.0""?>\n<Clock xmlns:dt=""urn:schemas-microsoft-com:datatypes""><Description dt:dt=""string"">E-Prime Primary Realtime Clock</Description><StartTime><Timestamp dt:dt=""int"">0</Timestamp><DateUtc dt:dt=""string"">2017-07-13T16:35:22Z</DateUtc></StartTime><FrequencyChanges><FrequencyChange><Frequency dt:dt=""r8"">2923105</Frequency><Timestamp dt:dt=""r8"">283001782129</Timestamp><Current dt:dt=""r8"">0</Current><DateUtc dt:dt=""string"">2017-07-13T16:35:22Z</DateUtc></FrequencyChange></FrequencyChanges></Clock>\n",60.004,1,-465482164,07-13-2017,11:35:22,4:35:22 PM,43,A181514_1T.wav,MOTHER TIED the STRING.   ,1T,TypeSPINProc,StimList,mother{SPACE}tight{SPACE}is{SPACE}the{SPACE}{SPACE}{SPACE}my{SPACE}parents{SPACE}{ESCAPE},17531,876583,62,1,43
SPIN,2021,1,"<?xml version=""1.0""?>\n<Clock xmlns:dt=""urn:schemas-microsoft-com:datatypes""><Description dt:dt=""string"">E-Prime Primary Realtime Clock</Description><StartTime><Timestamp dt:dt=""int"">0</Timestamp><DateUtc dt:dt=""string"">2017-07-13T16:35:22Z</DateUtc></StartTime><FrequencyChanges><FrequencyChange><Frequency dt:dt=""r8"">2923105</Frequency><Timestamp dt:dt=""r8"">283001782129</Timestamp><Current dt:dt=""r8"">0</Current><DateUtc dt:dt=""string"">2017-07-13T16:35:22Z</DateUtc></FrequencyChange></FrequencyChanges></Clock>\n",60.004,1,-465482164,07-13-2017,11:35:22,4:35:22 PM,44,A181014_SSN.wav,The GROUND was VERY HARD.   ,SSN,TypeSPINProc,StimList,the{SPACE}ground{SPACE}is{SPACE}very{SPACE}hard{ESCAPE},11553,888671,46,1,44
SPIN,2021,1,"<?xml version=""1.0""?>\n<Clock xmlns:dt=""urn:schemas-microsoft-com:datatypes""><Description dt:dt=""string"">E-Prime Primary Realtime Clock</Description><StartTime><Timestamp dt:dt=""int"">0</Timestamp><DateUtc dt:dt=""string"">2017-07-13T16:35:22Z</DateUtc></StartTime><FrequencyChanges><FrequencyChange><Frequency dt:dt=""r8"">2923105</Frequency><Timestamp dt:dt=""r8"">283001782129</Timestamp><Current dt:dt=""r8"">0</Current><DateUtc dt:dt=""string"">2017-07-13T16:35:22Z</DateUtc></FrequencyChange></FrequencyChanges></Clock>\n",60.004,1,-465482164,07-13-2017,11:35:22,4:35:22 PM,45,A181509_1T.wav,THEY MET SOME FRIENDS.   ,1T,TypeSPINProc,StimList,she{SPACE}{SPACE}father{ESCAPE},19864,908981,57,1,45
SPIN,2021,1,"<?xml version=""1.0""?>\n<Clock xmlns:dt=""urn:schemas-microsoft-com:datatypes""><Description dt:dt=""string"">E-Prime Primary Realtime Clock</Description><StartTime><Timestamp dt:dt=""int"">0</Timestamp><DateUtc dt:dt=""string"">2017-07-13T16:35:22Z</DateUtc></StartTime><FrequencyChanges><FrequencyChange><Frequency dt:dt=""r8"">2923105</Frequency><Timestamp dt:dt=""r8"">283001782129</Timestamp><Current dt:dt=""r8"">0</Current><DateUtc dt:dt=""string"">2017-07-13T16:35:22Z</DateUtc></FrequencyChange></FrequencyChanges></Clock>\n",60.004,1,-465482164,07-13-2017,11:35:22,4:35:22 PM,46,A180702_2T.wav,The DOG CAME BACK.   ,2Talker,TypeSPINProc,StimList,the{SPACE}water{SPACE}plain{SPACE}drop{ESCAPE},15687,925236,2,1,46
SPIN,2021,1,"<?xml version=""1.0""?>\n<Clock xmlns:dt=""urn:schemas-microsoft-com:datatypes""><Description dt:dt=""string"">E-Prime Primary Realtime Clock</Description><StartTime><Timestamp dt:dt=""int"">0</Timestamp><DateUtc dt:dt=""string"">2017-07-13T16:35:22Z</DateUtc></StartTime><FrequencyChanges><FrequencyChange><Frequency dt:dt=""r8"">2923105</Frequency><Timestamp dt:dt=""r8"">283001782129</Timestamp><Current dt:dt=""r8"">0</Current><DateUtc dt:dt=""string"">2017-07-13T16:35:22Z</DateUtc></FrequencyChange></FrequencyChanges></Clock>\n",60.004,1,-465482164,07-13-2017,11:35:22,4:35:22 PM,47,A180710_2T.wav,THEY had TWO EMPTY BOTTLES.   ,2Talker,TypeSPINProc,StimList,there{SPACE}are{SPACE}two{SPACE}empty{SPACE}bottles{SPACE}over{SPACE}my{SPACE}head{ESCAPE},17493,943291,10,1,47
SPIN,2021,1,"<?xml version=""1.0""?>\n<Clock xmlns:dt=""urn:schemas-microsoft-com:datatypes""><Description dt:dt=""string"">E-Prime Primary Realtime Clock</Description><StartTime><Timestamp dt:dt=""int"">0</Timestamp><DateUtc dt:dt=""string"">2017-07-13T16:35:22Z</DateUtc></StartTime><FrequencyChanges><FrequencyChange><Frequency dt:dt=""r8"">2923105</Frequency><Timestamp dt:dt=""r8"">283001782129</Timestamp><Current dt:dt=""r8"">0</Current><DateUtc dt:dt=""string"">2017-07-13T16:35:22Z</DateUtc></FrequencyChange></FrequencyChanges></Clock>\n",60.004,1,-465482164,07-13-2017,11:35:22,4:35:22 PM,48,A181507_1T.wav,Some NICE PEOPLE are COMING.   ,1T,TypeSPINProc,StimList,there{SPACE}are{SPACE}more{SPACE}people{SPACE}are{SPACE}coming{SPACE}our{SPACE}breakfast{ESCAPE},19347,963210,55,1,48
SPIN,2021,1,"<?xml version=""1.0""?>\n<Clock xmlns:dt=""urn:schemas-microsoft-com:datatypes""><Description dt:dt=""string"">E-Prime Primary Realtime Clock</Description><StartTime><Timestamp dt:dt=""int"">0</Timestamp><DateUtc dt:dt=""string"">2017-07-13T16:35:22Z</DateUtc></StartTime><FrequencyChanges><FrequencyChange><Frequency dt:dt=""r8"">2923105</Frequency><Timestamp dt:dt=""r8"">283001782129</Timestamp><Current dt:dt=""r8"">0</Current><DateUtc dt:dt=""string"">2017-07-13T16:35:22Z</DateUtc></FrequencyChange></FrequencyChanges></Clock>\n",60.004,1,-465482164,07-13-2017,11:35:22,4:35:22 PM,49,A181004_SSN.wav,The GOOD BOY is HELPING.   ,SSN,TypeSPINProc,StimList,the{SPACE}boys{ESCAPE},6010,969722,36,1,49
SPIN,2021,1,"<?xml version=""1.0""?>\n<Clock xmlns:dt=""urn:schemas-microsoft-com:datatypes""><Description dt:dt=""string"">E-Prime Primary Realtime Clock</Description><StartTime><Timestamp dt:dt=""int"">0</Timestamp><DateUtc dt:dt=""string"">2017-07-13T16:35:22Z</DateUtc></StartTime><FrequencyChanges><FrequencyChange><Frequency dt:dt=""r8"">2923105</Frequency><Timestamp dt:dt=""r8"">283001782129</Timestamp><Current dt:dt=""r8"">0</Current><DateUtc dt:dt=""string"">2017-07-13T16:35:22Z</DateUtc></FrequencyChange></FrequencyChanges></Clock>\n",60.004,1,-465482164,07-13-2017,11:35:22,4:35:22 PM,50,A180911_8T.wav,The BABY BROKE his CUP.   ,8Talker,TypeSPINProc,StimList,tea{SPACE}what{SPACE}the{ESCAPE},15670,986065,27,1,50
SPIN,2021,1,"<?xml version=""1.0""?>\n<Clock xmlns:dt=""urn:schemas-microsoft-com:datatypes""><Description dt:dt=""string"">E-Prime Primary Realtime Clock</Description><StartTime><Timestamp dt:dt=""int"">0</Timestamp><DateUtc dt:dt=""string"">2017-07-13T16:35:22Z</DateUtc></StartTime><FrequencyChanges><FrequencyChange><Frequency dt:dt=""r8"">2923105</Frequency><Timestamp dt:dt=""r8"">283001782129</Timestamp><Current dt:dt=""r8"">0</Current><DateUtc dt:dt=""string"">2017-07-13T16:35:22Z</DateUtc></FrequencyChange></FrequencyChanges></Clock>\n",60.004,1,-465482164,07-13-2017,11:35:22,4:35:22 PM,51,A180916_8T.wav,The CAR HIT a WALL.   ,SSN,TypeSPINProc,StimList,the{SPACE}car{SPACE}is{SPACE}brown{ESCAPE},13109,999720,32,1,51
SPIN,2021,1,"<?xml version=""1.0""?>\n<Clock xmlns:dt=""urn:schemas-microsoft-com:datatypes""><Description dt:dt=""string"">E-Prime Primary Realtime Clock</Description><StartTime><Timestamp dt:dt=""int"">0</Timestamp><DateUtc dt:dt=""string"">2017-07-13T16:35:22Z</DateUtc></StartTime><FrequencyChanges><FrequencyChange><Frequency dt:dt=""r8"">2923105</Frequency><Timestamp dt:dt=""r8"">283001782129</Timestamp><Current dt:dt=""r8"">0</Current><DateUtc dt:dt=""string"">2017-07-13T16:35:22Z</DateUtc></FrequencyChange></FrequencyChanges></Clock>\n",60.004,1,-465482164,07-13-2017,11:35:22,4:35:22 PM,52,A180905_8T.wav,The TABLE has THREE LEGS.   ,SSN,TypeSPINProc,StimList,the{SPACE}table{SPACE}has{SPACE}three{SPACE}layers{ESCAPE},10335,1010495,21,1,52
SPIN,2021,1,"<?xml version=""1.0""?>\n<Clock xmlns:dt=""urn:schemas-microsoft-com:datatypes""><Description dt:dt=""string"">E-Prime Primary Realtime Clock</Description><StartTime><Timestamp dt:dt=""int"">0</Timestamp><DateUtc dt:dt=""string"">2017-07-13T16:35:22Z</DateUtc></StartTime><FrequencyChanges><FrequencyChange><Frequency dt:dt=""r8"">2923105</Frequency><Timestamp dt:dt=""r8"">283001782129</Timestamp><Current dt:dt=""r8"">0</Current><DateUtc dt:dt=""string"">2017-07-13T16:35:22Z</DateUtc></FrequencyChange></FrequencyChanges></Clock>\n",60.004,1,-465482164,07-13-2017,11:35:22,4:35:22 PM,53,A180715_2T.wav,HE is HOLDING his NOSE.   ,2Talker,TypeSPINProc,StimList,the{SPACE}table{SPACE}color{SPACE}is{SPACE}orange{SPACE}the{SPACE}next{ESCAPE},24403,1035629,15,1,53
SPIN,2021,1,"<?xml version=""1.0""?>\n<Clock xmlns:dt=""urn:schemas-microsoft-com:datatypes""><Description dt:dt=""string"">E-Prime Primary Realtime Clock</Description><StartTime><Timestamp dt:dt=""int"">0</Timestamp><DateUtc dt:dt=""string"">2017-07-13T16:35:22Z</DateUtc></StartTime><FrequencyChanges><FrequencyChange><Frequency dt:dt=""r8"">2923105</Frequency><Timestamp dt:dt=""r8"">283001782129</Timestamp><Current dt:dt=""r8"">0</Current><DateUtc dt:dt=""string"">2017-07-13T16:35:22Z</DateUtc></FrequencyChange></FrequencyChanges></Clock>\n",60.004,1,-465482164,07-13-2017,11:35:22,4:35:22 PM,54,A181506_1T.wav,The BOY HURRIED to SCHOOL.   ,1T,TypeSPINProc,StimList,the{SPACE}elephants{SPACE}are{SPACE}biggest{SPACE}one{SPACE}for{SPACE}deserve{ESCAPE},20047,1056188,54,1,54
SPIN,2021,1,"<?xml version=""1.0""?>\n<Clock xmlns:dt=""urn:schemas-microsoft-com:datatypes""><Description dt:dt=""string"">E-Prime Primary Realtime Clock</Description><StartTime><Timestamp dt:dt=""int"">0</Timestamp><DateUtc dt:dt=""string"">2017-07-13T16:35:22Z</DateUtc></StartTime><FrequencyChanges><FrequencyChange><Frequency dt:dt=""r8"">2923105</Frequency><Timestamp dt:dt=""r8"">283001782129</Timestamp><Current dt:dt=""r8"">0</Current><DateUtc dt:dt=""string"">2017-07-13T16:35:22Z</DateUtc></FrequencyChange></FrequencyChanges></Clock>\n",60.004,1,-465482164,07-13-2017,11:35:22,4:35:22 PM,55,A181009_SSN.wav,The MAILMAN BROUGHT a LETTER.   ,SSN,TypeSPINProc,StimList,the{SPACE}lemon{SPACE}is{SPACE}yellow{ESCAPE},15142,1071915,41,1,55
SPIN,2021,1,"<?xml version=""1.0""?>\n<Clock xmlns:dt=""urn:schemas-microsoft-com:datatypes""><Description dt:dt=""string"">E-Prime Primary Realtime Clock</Description><StartTime><Timestamp dt:dt=""int"">0</Timestamp><DateUtc dt:dt=""string"">2017-07-13T16:35:22Z</DateUtc></StartTime><FrequencyChanges><FrequencyChange><Frequency dt:dt=""r8"">2923105</Frequency><Timestamp dt:dt=""r8"">283001782129</Timestamp><Current dt:dt=""r8"">0</Current><DateUtc dt:dt=""string"">2017-07-13T16:35:22Z</DateUtc></FrequencyChange></FrequencyChanges></Clock>\n",60.004,1,-465482164,07-13-2017,11:35:22,4:35:22 PM,56,A180711_2T.wav,The BALL is BOUNCING very HIGH.   ,2Talker,TypeSPINProc,StimList,the{SPACE}ball{SPACE}is{SPACE}sticking{ESCAPE},10279,1083034,11,1,56
SPIN,2021,1,"<?xml version=""1.0""?>\n<Clock xmlns:dt=""urn:schemas-microsoft-com:datatypes""><Description dt:dt=""string"">E-Prime Primary Realtime Clock</Description><StartTime><Timestamp dt:dt=""int"">0</Timestamp><DateUtc dt:dt=""string"">2017-07-13T16:35:22Z</DateUtc></StartTime><FrequencyChanges><FrequencyChange><Frequency dt:dt=""r8"">2923105</Frequency><Timestamp dt:dt=""r8"">283001782129</Timestamp><Current dt:dt=""r8"">0</Current><DateUtc dt:dt=""string"">2017-07-13T16:35:22Z</DateUtc></FrequencyChange></FrequencyChanges></Clock>\n",60.004,1,-465482164,07-13-2017,11:35:22,4:35:22 PM,57,A180912_8T.wav,The LADY PACKED her BAG.   ,SSN,TypeSPINProc,StimList,the{SPACE}lady{SPACE}packs{SPACE}her{SPACE}bag{ESCAPE},11924,1095562,28,1,57
SPIN,2021,1,"<?xml version=""1.0""?>\n<Clock xmlns:dt=""urn:schemas-microsoft-com:datatypes""><Description dt:dt=""string"">E-Prime Primary Realtime Clock</Description><StartTime><Timestamp dt:dt=""int"">0</Timestamp><DateUtc dt:dt=""string"">2017-07-13T16:35:22Z</DateUtc></StartTime><FrequencyChanges><FrequencyChange><Frequency dt:dt=""r8"">2923105</Frequency><Timestamp dt:dt=""r8"">283001782129</Timestamp><Current dt:dt=""r8"">0</Current><DateUtc dt:dt=""string"">2017-07-13T16:35:22Z</DateUtc></FrequencyChange></FrequencyChanges></Clock>\n",60.004,1,-465482164,07-13-2017,11:35:22,4:35:22 PM,58,A181001_SSN.wav,A DISH TOWEL is by the SINK.   ,SSN,TypeSPINProc,StimList,the{SPACE}distall{SPACE}is{SPACE}by{SPACE}the{SPACE}six{ESCAPE},9985,1106105,33,1,58
SPIN,2021,1,"<?xml version=""1.0""?>\n<Clock xmlns:dt=""urn:schemas-microsoft-com:datatypes""><Description dt:dt=""string"">E-Prime Primary Realtime Clock</Description><StartTime><Timestamp dt:dt=""int"">0</Timestamp><DateUtc dt:dt=""string"">2017-07-13T16:35:22Z</DateUtc></StartTime><FrequencyChanges><FrequencyChange><Frequency dt:dt=""r8"">2923105</Frequency><Timestamp dt:dt=""r8"">283001782129</Timestamp><Current dt:dt=""r8"">0</Current><DateUtc dt:dt=""string"">2017-07-13T16:35:22Z</DateUtc></FrequencyChange></FrequencyChanges></Clock>\n",60.004,1,-465482164,07-13-2017,11:35:22,4:35:22 PM,59,A180713_2T.wav,The GIRL has a PICTURE BOOK.   ,2Talker,TypeSPINProc,StimList,the{SPACE}girl{'}s{SPACE}{SPACE}{SPACE}building{SPACE}their{SPACE}house{ESCAPE},18164,1124784,13,1,59
SPIN,2021,1,"<?xml version=""1.0""?>\n<Clock xmlns:dt=""urn:schemas-microsoft-com:datatypes""><Description dt:dt=""string"">E-Prime Primary Realtime Clock</Description><StartTime><Timestamp dt:dt=""int"">0</Timestamp><DateUtc dt:dt=""string"">2017-07-13T16:35:22Z</DateUtc></StartTime><FrequencyChanges><FrequencyChange><Frequency dt:dt=""r8"">2923105</Frequency><Timestamp dt:dt=""r8"">283001782129</Timestamp><Current dt:dt=""r8"">0</Current><DateUtc dt:dt=""string"">2017-07-13T16:35:22Z</DateUtc></FrequencyChange></FrequencyChanges></Clock>\n",60.004,1,-465482164,07-13-2017,11:35:22,4:35:22 PM,60,A181505_1T.wav,The DRIVER STARTED the ENGINE.   ,1T,TypeSPINProc,StimList,"people{SPACE}are{SPACE}fixing{SPACE}their{SPACE}engines{,}{SPACE}a{SPACE}quarter{ESCAPE}",27519,1152638,53,1,60
SPIN,2021,1,"<?xml version=""1.0""?>\n<Clock xmlns:dt=""urn:schemas-microsoft-com:datatypes""><Description dt:dt=""string"">E-Prime Primary Realtime Clock</Description><StartTime><Timestamp dt:dt=""int"">0</Timestamp><DateUtc dt:dt=""string"">2017-07-13T16:35:22Z</DateUtc></StartTime><FrequencyChanges><FrequencyChange><Frequency dt:dt=""r8"">2923105</Frequency><Timestamp dt:dt=""r8"">283001782129</Timestamp><Current dt:dt=""r8"">0</Current><DateUtc dt:dt=""string"">2017-07-13T16:35:22Z</DateUtc></FrequencyChange></FrequencyChanges></Clock>\n",60.004,1,-465482164,07-13-2017,11:35:22,4:35:22 PM,61,A180908_8T.wav,HE LISTENED TO his FATHER.   ,SSN,TypeSPINProc,StimList,you{SPACE}are{SPACE}listening{SPACE}to{SPACE}this{SPACE}{ESCAPE},13014,1166181,24,1,61
SPIN,2021,1,"<?xml version=""1.0""?>\n<Clock xmlns:dt=""urn:schemas-microsoft-com:datatypes""><Description dt:dt=""string"">E-Prime Primary Realtime Clock</Description><StartTime><Timestamp dt:dt=""int"">0</Timestamp><DateUtc dt:dt=""string"">2017-07-13T16:35:22Z</DateUtc></StartTime><FrequencyChanges><FrequencyChange><Frequency dt:dt=""r8"">2923105</Frequency><Timestamp dt:dt=""r8"">283001782129</Timestamp><Current dt:dt=""r8"">0</Current><DateUtc dt:dt=""string"">2017-07-13T16:35:22Z</DateUtc></FrequencyChange></FrequencyChanges></Clock>\n",60.004,1,-465482164,07-13-2017,11:35:22,4:35:22 PM,62,A181010_SSN.wav,THEY are RIDING their BICYCLES.   ,SSN,TypeSPINProc,StimList,they{SPACE}are{SPACE}riding{SPACE}the{SPACE}bicycles{ESCAPE},11665,1178381,42,1,62
SPIN,2021,1,"<?xml version=""1.0""?>\n<Clock xmlns:dt=""urn:schemas-microsoft-com:datatypes""><Description dt:dt=""string"">E-Prime Primary Realtime Clock</Description><StartTime><Timestamp dt:dt=""int"">0</Timestamp><DateUtc dt:dt=""string"">2017-07-13T16:35:22Z</DateUtc></StartTime><FrequencyChanges><FrequencyChange><Frequency dt:dt=""r8"">2923105</Frequency><Timestamp dt:dt=""r8"">283001782129</Timestamp><Current dt:dt=""r8"">0</Current><DateUtc dt:dt=""string"">2017-07-13T16:35:22Z</DateUtc></FrequencyChange></FrequencyChanges></Clock>\n",60.004,1,-465482164,07-13-2017,11:35:22,4:35:22 PM,63,A180708_2T.wav,The YOUNG PEOPLE are DANCING.,2Talker,TypeSPINProc,StimList,have{SPACE}you{SPACE}ever{SPACE}right{SPACE}{SPACE}the{SPACE}class{ESCAPE},19868,1198667,8,1,63
SPIN,2021,1,"<?xml version=""1.0""?>\n<Clock xmlns:dt=""urn:schemas-microsoft-com:datatypes""><Description dt:dt=""string"">E-Prime Primary Realtime Clock</Description><StartTime><Timestamp dt:dt=""int"">0</Timestamp><DateUtc dt:dt=""string"">2017-07-13T16:35:22Z</DateUtc></StartTime><FrequencyChanges><FrequencyChange><Frequency dt:dt=""r8"">2923105</Frequency><Timestamp dt:dt=""r8"">283001782129</Timestamp><Current dt:dt=""r8"">0</Current><DateUtc dt:dt=""string"">2017-07-13T16:35:22Z</DateUtc></FrequencyChange></FrequencyChanges></Clock>\n",60.004,1,-465482164,07-13-2017,11:35:22,4:35:22 PM,64,A180703_2T.wav,The FLOOR LOOKED CLEAN. ,2Talker,TypeSPINProc,StimList,people{SPACE}wear{SPACE}boots{SPACE}on{SPACE}their{SPACE}feet{SPACE}a{SPACE}quarter{ENTER}{ESCAPE},19971,1219002,3,1,64