ExperimentName,Subject,Session,0,Display.RefreshRate,Group,RandomSeed,0,0,0,Block,Filename,FileText,Noise,Procedure,Running,Slide1.RESP,Slide1.RT,Slide1.RTTime,StimList,StimList.Cycle,StimList.Sample
SPIN,2010,1,0,60.003,1,-900716341,0,0,0,1,A180910_8T.wav,THEY WENT on a VACATION.   ,SSN,TypeSPINProc,StimList,one{ESCAPE},30460,149894,26,1,1
SPIN,2010,1,0,60.003,1,-900716341,0,0,0,2,A180702_2T.wav,The DOG CAME BACK.   ,2Talker,TypeSPINProc,StimList,last{SPACE}night{SPACE}dog{SPACE}drop{ESCAPE},21587,174269,2,1,2
SPIN,2010,1,0,60.003,1,-900716341,0,0,0,3,A181515_1T.wav,The TRAIN STOPS at the STATION.   ,1T,TypeSPINProc,StimList,the{SPACE}train{SPACE}stop{SPACE}at{SPACE}the{SPACE}train{SPACE}station{SPACE}apple{SPACE}pie{ESCAPE},24836,199916,63,1,3
SPIN,2010,1,0,60.003,1,-900716341,0,0,0,4,A181502_1T.wav,The OVEN is TOO HOT.,1T,TypeSPINProc,StimList,monday{SPACE}is{SPACE}the{SPACE}first{SPACE}day{SPACE}of{SPACE}the{SPACE}week{SPACE}hot{ESCAPE},21149,221795,50,1,4
SPIN,2010,1,0,60.003,1,-900716341,0,0,0,5,A180705_2T.wav,The FRUIT IS on the GROUND.   ,2Talker,TypeSPINProc,StimList,desert{SPACE}{LEFTARROW}tuesday{ESCAPE},47009,270920,5,1,5
SPIN,2010,1,0,60.003,1,-900716341,0,0,0,6,A180916_8T.wav,The CAR HIT a WALL.   ,SSN,TypeSPINProc,StimList,car{SPACE}should{SPACE}call{ESCAPE},18747,290439,32,1,6
SPIN,2010,1,0,60.003,1,-900716341,0,0,0,7,A180706_2T.wav,MOTHER GOT a SAUCEPAN.,2Talker,TypeSPINProc,StimList,the{SPACE}parents{SPACE}family{ESCAPE},14869,306310,6,1,7
SPIN,2010,1,0,60.003,1,-900716341,0,0,0,8,A181511_1T.wav,The TINY BABY was PRETTY.   ,1T,TypeSPINProc,StimList,watch{SPACE}elephant{SPACE}{SHIFT}{SHIFT}{SHIFT}T{SHIFT}V{ESCAPE},22476,329949,59,1,8
SPIN,2010,1,0,60.003,1,-900716341,0,0,0,9,A180914_8T.wav,The TRAIN is MOVING FAST.   ,SSN,TypeSPINProc,StimList,the{SPACE}train{SPACE}is{SPACE}moving{SPACE}fast{ESCAPE},13331,344820,30,1,9
SPIN,2010,1,0,60.003,1,-900716341,0,0,0,10,A180908_8T.wav,HE LISTENED TO his FATHER.   ,SSN,TypeSPINProc,StimList,you{SPACE}listen{SPACE}to{SPACE}his{SPACE}talking{ESCAPE},12028,357483,24,1,10
SPIN,2010,1,0,60.003,1,-900716341,0,0,0,11,A181512_1T.wav,The DAUGHTER SET the TABLE.   ,1T,TypeSPINProc,StimList,he{SPACE}had{SPACE}an{SPACE}apple{SPACE}pie{SPACE}falls{ESCAPE},17312,375250,60,1,11
SPIN,2010,1,0,60.003,1,-900716341,0,0,0,12,A181016_SSN.wav,The CHICKEN LAID some EGGS.   ,SSN,TypeSPINProc,StimList,the{SPACE}chicken{SPACE}laid{SPACE}eggs{ESCAPE},12483,388586,48,1,12
SPIN,2010,1,0,60.003,1,-900716341,0,0,0,13,A181013_SSN.wav,The SHIRTS are HANGING in the CLOSET.   ,SSN,TypeSPINProc,StimList,the{SPACE}shirts{SPACE}are{SPACE}hanging{SPACE}at{SPACE}hospital{ESCAPE},18552,407721,45,1,13
SPIN,2010,1,0,60.003,1,-900716341,0,0,0,14,A180703_2T.wav,The FLOOR LOOKED CLEAN. ,2Talker,TypeSPINProc,StimList,people{SPACE}wearing{SPACE}shoes{ESCAPE},13601,422152,3,1,14
SPIN,2010,1,0,60.003,1,-900716341,0,0,0,15,A180712_2T.wav,FATHER FORGOT the BREAD.   ,2Talker,TypeSPINProc,StimList,people{SPACE}{LEFTARROW}{LEFTARROW}wear{SPACE}cloth{ESCAPE},28677,451294,12,1,15
SPIN,2010,1,0,60.003,1,-900716341,0,0,0,16,A180701_2T.wav,The CHILDREN DROPPED the BAG,2Talker,TypeSPINProc,StimList,boy{SPACE}is{SPACE}helping{SPACE}she{SPACE}made{SPACE}her{ESCAPE},18643,471909,1,1,16
SPIN,2010,1,0,60.003,1,-900716341,0,0,0,17,A181509_1T.wav,THEY MET SOME FRIENDS.   ,1T,TypeSPINProc,StimList,is{SPACE}his{SPACE}father{SPACE}and{SPACE}mother{SPACE}he{SPACE}made{ESCAPE},17969,490484,57,1,17
SPIN,2010,1,0,60.003,1,-900716341,0,0,0,18,A180909_8T.wav,The DISHCLOTH is VERY WET.  ,8Talker,TypeSPINProc,StimList,{ESCAPE},13848,505012,25,1,18
SPIN,2010,1,0,60.003,1,-900716341,0,0,0,19,A181010_SSN.wav,THEY are RIDING their BICYCLES.   ,SSN,TypeSPINProc,StimList,they{SPACE}are{SPACE}writing{SPACE}{ESCAPE},15429,523659,42,1,19
SPIN,2010,1,0,60.003,1,-900716341,0,0,0,20,A180714_2T.wav,The ORANGE was VERY SWEET.   ,2Talker,TypeSPINProc,StimList,coffee{SPACE}train{ESCAPE},29546,554425,14,1,20
SPIN,2010,1,0,60.003,1,-900716341,0,0,0,21,A180711_2T.wav,The BALL is BOUNCING very HIGH.   ,2Talker,TypeSPINProc,StimList,orange{SPACE}juice{ESCAPE},9782,565176,11,1,21
SPIN,2010,1,0,60.003,1,-900716341,0,0,0,22,A180915_8T.wav,The CHILD DRANK some MILK.   ,SSN,TypeSPINProc,StimList,the{SPACE}child{SPACE}drinks{ESCAPE},8924,574800,31,1,22
SPIN,2010,1,0,60.003,1,-900716341,0,0,0,23,A181006_SSN.wav,The KITCHEN CLOCK was WRONG.   ,SSN,TypeSPINProc,StimList,kitchen{SPACE}plot{SPACE}is{SPACE}wrong{ESCAPE},15130,590623,38,1,23
SPIN,2010,1,0,60.003,1,-900716341,0,0,0,24,A180905_8T.wav,The TABLE has THREE LEGS.   ,SSN,TypeSPINProc,StimList,the{SPACE}table{SPACE}has{SPACE}three{SPACE}legs{ESCAPE},8063,599255,21,1,24
SPIN,2010,1,0,60.003,1,-900716341,0,0,0,25,A181015_SSN.wav,The BUCKETS HOLD WATER.   ,SSN,TypeSPINProc,StimList,the{SPACE}bucket{SPACE}{ESCAPE},13280,612838,47,1,25
SPIN,2010,1,0,60.003,1,-900716341,0,0,0,26,A180713_2T.wav,The GIRL has a PICTURE BOOK.   ,2Talker,TypeSPINProc,StimList,the{SPACE}girl{SPACE}has{SPACE}{ESCAPE},9588,623229,13,1,26
SPIN,2010,1,0,60.003,1,-900716341,0,0,0,27,A181501_1T.wav,A MAN is TURNING the FAUCET.   ,1T,TypeSPINProc,StimList,entrees{SPACE}birds{ESCAPE},9310,632917,49,1,27
SPIN,2010,1,0,60.003,1,-900716341,0,0,0,28,A181002_SSN.wav,The JANITOR USED a BROOM.   ,SSN,TypeSPINProc,StimList,the{SPACE}{LEFTARROW}janitor{ESCAPE},25078,658451,34,1,28
SPIN,2010,1,0,60.003,1,-900716341,0,0,0,29,A181011_SSN.wav,HE BROKE his LEG.   ,SSN,TypeSPINProc,StimList,the{SPACE}girl{SPACE}is{SPACE}left{ESCAPE},11079,669867,43,1,29
SPIN,2010,1,0,60.003,1,-900716341,0,0,0,30,A181510_1T.wav,The RAINCOAT is HANGING UP.  ,1T,TypeSPINProc,StimList,green{SPACE}coat{SPACE}monday{SPACE}is{SPACE}the{SPACE}first{ESCAPE},14660,685098,58,1,30
SPIN,2010,1,0,60.003,1,-900716341,0,0,0,31,A181516_1T.wav,The PUPPY PLAYS with a BALL.   ,1T,TypeSPINProc,StimList,"the{SPACE}wolf{SPACE}drop{SPACE}the{SPACE}ball{,}{SPACE}the{SPACE}color{ESCAPE}",16939,702393,64,1,31
SPIN,2010,1,0,60.003,1,-900716341,0,0,0,32,A181009_SSN.wav,The MAILMAN BROUGHT a LETTER.   ,SSN,TypeSPINProc,StimList,the{SPACE}man{SPACE}letter{ESCAPE},9451,712537,41,1,32
SPIN,2010,1,0,60.003,1,-900716341,0,0,0,33,A180901_8T.wav,The BOOK TELLS a STORY.   ,8Talker,TypeSPINProc,StimList,tell{SPACE}the{SPACE}story{ESCAPE},9635,722720,17,1,33
SPIN,2010,1,0,60.003,1,-900716341,0,0,0,34,A180708_2T.wav,The YOUNG PEOPLE are DANCING.,2Talker,TypeSPINProc,StimList,the{SPACE}young{SPACE}people{SPACE}are{SPACE}dancing{ESCAPE},15483,738735,8,1,34
SPIN,2010,1,0,60.003,1,-900716341,0,0,0,35,A180710_2T.wav,THEY had TWO EMPTY BOTTLES.   ,2Talker,TypeSPINProc,StimList,the{SPACE}have{SPACE}two{SPACE}bottles{LEFTARROW}{LEFTARROW}{LEFTARROW}{ESCAPE},19765,758782,10,1,35
SPIN,2010,1,0,60.003,1,-900716341,0,0,0,36,A181007_SSN.wav,The DOG JUMPED ON the CHAIR.   ,SSN,TypeSPINProc,StimList,the{SPACE}doctor{SPACE}moves{SPACE}the{SPACE}chair{ESCAPE},14128,773461,39,1,36
SPIN,2010,1,0,60.003,1,-900716341,0,0,0,37,A181505_1T.wav,The DRIVER STARTED the ENGINE.   ,1T,TypeSPINProc,StimList,"people{SPACE}wears{SPACE}shoes{SPACE}a{SPACE}quarter{,}{SPACE}engine{ESCAPE}",18542,792324,53,1,37
SPIN,2010,1,0,60.003,1,-900716341,0,0,0,38,A180904_8T.wav,SHE STOOD near her WINDOW.   ,8Talker,TypeSPINProc,StimList,ring{ESCAPE},10434,803348,20,1,38
SPIN,2010,1,0,60.003,1,-900716341,0,0,0,39,A181001_SSN.wav,A DISH TOWEL is by the SINK.   ,SSN,TypeSPINProc,StimList,the{SPACE}dish{SPACE}towel{SPACE}is{SPACE}by{SPACE}the{SPACE}sink{ESCAPE},13929,818043,33,1,39
SPIN,2010,1,0,60.003,1,-900716341,0,0,0,40,A180912_8T.wav,The LADY PACKED her BAG.   ,SSN,TypeSPINProc,StimList,the{SPACE}lady{SPACE}passes{SPACE}his{SPACE}bag{ESCAPE},9585,828298,28,1,40
SPIN,2010,1,0,60.003,1,-900716341,0,0,0,41,A181012_SSN.wav,The MILK was by the FRONT DOOR.   ,SSN,TypeSPINProc,StimList,the{SPACE}milk{SPACE}is{SPACE}passing{SPACE}front{SPACE}door{ESCAPE},17080,850209,44,1,41
SPIN,2010,1,0,60.003,1,-900716341,0,0,0,42,A181014_SSN.wav,The GROUND was VERY HARD.   ,SSN,TypeSPINProc,StimList,the{SPACE}groud{SPACE}is{SPACE}very{SPACE}hot{ESCAPE},12202,864113,46,1,42
SPIN,2010,1,0,60.003,1,-900716341,0,0,0,43,A180907_8T.wav,The FIVE MEN are WORKING.    ,8Talker,TypeSPINProc,StimList,{ESCAPE},11178,877272,23,1,43
SPIN,2010,1,0,60.003,1,-900716341,0,0,0,44,A180902_8T.wav,The YOUNG BOY LEFT HOME.   ,8Talker,TypeSPINProc,StimList,young{ESCAPE},12268,890295,18,1,44
SPIN,2010,1,0,60.003,1,-900716341,0,0,0,45,A180715_2T.wav,HE is HOLDING his NOSE.   ,2Talker,TypeSPINProc,StimList,yellow{SPACE}cars{SPACE}necks{ESCAPE},12637,904646,15,1,45
SPIN,2010,1,0,60.003,1,-900716341,0,0,0,46,A181506_1T.wav,The BOY HURRIED to SCHOOL.   ,1T,TypeSPINProc,StimList,"are{SPACE}eating{SPACE}deserts{,}{SPACE}for{SPACE}schools{ESCAPE}",22135,928677,54,1,46
SPIN,2010,1,0,60.003,1,-900716341,0,0,0,47,A181005_SSN.wav,THEY FOLLOWED the PATH.   ,SSN,TypeSPINProc,StimList,they{SPACE}call{SPACE}the{SPACE}cat{ESCAPE},15705,945012,37,1,47
SPIN,2010,1,0,60.003,1,-900716341,0,0,0,48,A180911_8T.wav,The BABY BROKE his CUP.   ,8Talker,TypeSPINProc,StimList,{ESCAPE},11142,957148,27,1,48
SPIN,2010,1,0,60.003,1,-900716341,0,0,0,49,A181513_1T.wav,THEY WALKED ACROSS the GRASS.   ,1T,TypeSPINProc,StimList,"a{SPACE}quater{SPACE}is{SPACE}25{SPACE}cents{,}{SPACE}{SHIFT}{SHIFT}I{SPACE}wear{SPACE}my{SPACE}hat{ESCAPE}",16603,975459,61,1,49
SPIN,2010,1,0,60.003,1,-900716341,0,0,0,50,A180903_8T.wav,THEY are CLIMBING the TREE.   ,8Talker,TypeSPINProc,StimList,fraction{ESCAPE},10590,987378,19,1,50
SPIN,2010,1,0,60.003,1,-900716341,0,0,0,51,A181504_1T.wav,The SHOP CLOSED for LUNCH.   ,1T,TypeSPINProc,StimList,"first{SPACE}the{SPACE}drink{SPACE}is{SPACE}orange{SPACE}juice{,}{SPACE}we{SPACE}have{SPACE}the{SPACE}ticket{ESCAPE}",22597,1010601,52,1,51
SPIN,2010,1,0,60.003,1,-900716341,0,0,0,52,A181004_SSN.wav,The GOOD BOY is HELPING.   ,SSN,TypeSPINProc,StimList,the{SPACE}good{SPACE}boy{SPACE}is{SPACE}helping{ESCAPE},10325,1023528,36,1,52
SPIN,2010,1,0,60.003,1,-900716341,0,0,0,53,A180707_2T.wav,THEY WASHED in COLD WATER.   ,2Talker,TypeSPINProc,StimList,the{SPACE}water{SPACE}rainfall{SPACE}in{SPACE}21{SPACE}days{ESCAPE},19335,1043471,7,1,53
SPIN,2010,1,0,60.003,1,-900716341,0,0,0,54,A180906_8T.wav,A LETTER FELL on the FLOOR.   ,SSN,TypeSPINProc,StimList,{ESCAPE},7392,1051527,22,1,54
SPIN,2010,1,0,60.003,1,-900716341,0,0,0,55,A180913_8T.wav,The DINNER PLATE is HOT.   ,SSN,TypeSPINProc,StimList,the{SPACE}dinner{SPACE}plate{SPACE}is{SPACE}hot{ESCAPE},13470,1065654,29,1,55
SPIN,2010,1,0,60.003,1,-900716341,0,0,0,56,A181003_SSN.wav,THEY SAT on a WOODEN BENCH.   ,SSN,TypeSPINProc,StimList,they{SPACE}sat{SPACE}on{SPACE}the{SPACE}edge{ESCAPE},10103,1076253,35,1,56
SPIN,2010,1,0,60.003,1,-900716341,0,0,0,57,A180704_2T.wav,SHE FOUND her PURSE.,2Talker,TypeSPINProc,StimList,"wear{SPACE}my{SPACE}hat{,}{SPACE}he{SPACE}found{SPACE}her{SPACE}in{SPACE}springs{ESCAPE}",16777,1093860,4,1,57
SPIN,2010,1,0,60.003,1,-900716341,0,0,0,58,A181008_SSN.wav,SOMEONE is CROSSING the ROAD.   ,SSN,TypeSPINProc,StimList,someone{SPACE}is{SPACE}crossing{SPACE}the{SPACE}road{ESCAPE},9786,1105868,40,1,58
SPIN,2010,1,0,60.003,1,-900716341,0,0,0,59,A181508_1T.wav,SHE BUMPED her HEAD.   ,1T,TypeSPINProc,StimList,many{SPACE}people{SPACE}will{SPACE}just{SPACE}start{SPACE}the{SPACE}day{ESCAPE},14723,1121971,56,1,59
SPIN,2010,1,0,60.003,1,-900716341,0,0,0,60,A181507_1T.wav,Some NICE PEOPLE are COMING.   ,1T,TypeSPINProc,StimList,have{SPACE}21{SPACE}days{SPACE}at{SPACE}breakfast{ESCAPE},10974,1134154,55,1,60
SPIN,2010,1,0,60.003,1,-900716341,0,0,0,61,A181514_1T.wav,MOTHER TIED the STRING.   ,1T,TypeSPINProc,StimList,"sacars{SPACE}on{SPACE}the{SPACE}neck{,}{SPACE}my{SPACE}parents{SPACE}sit{SPACE}{ESCAPE}",23585,1159065,62,1,61
SPIN,2010,1,0,60.003,1,-900716341,0,0,0,62,A180709_2T.wav,The BUS LEFT EARLY.   ,2Talker,TypeSPINProc,StimList,{SHIFT}Monday{SPACE}is{SPACE}the{SPACE}first{SPACE}day{SPACE}of{SPACE}week{ESCAPE},12559,1172504,9,1,62
SPIN,2010,1,0,60.003,1,-900716341,0,0,0,63,A180716_2T.wav,The NEW ROAD is on the MAP.   ,2Talker,TypeSPINProc,StimList,the{SPACE}dish{SPACE}is{SPACE}great{SPACE}they{SPACE}are{SPACE}not{ESCAPE},12424,1185552,16,1,63
SPIN,2010,1,0,60.003,1,-900716341,0,0,0,64,A181503_1T.wav,HE is SUCKING his THUMB.   ,1T,TypeSPINProc,StimList,{SHIFT}I{SPACE}wear{SPACE}my{SPACE}hat{SPACE}on{SPACE}my{SPACE}head{ESCAPE},13937,1200047,51,1,64
